Subject,Group,Block,Trial,Emotion,SameDiff,Gender,ACC,RT
10,1,1,1,pos,same,male,0,NA
10,1,1,2,neg,same,male,0,NA
10,1,1,3,neu,diff,male,1,897
10,1,1,4,neu,diff,male,1,1469
10,1,1,5,neu,same,male,1,956
10,1,1,6,neg,diff,male,0,NA
10,1,1,7,pos,diff,male,1,1332
10,1,1,8,neu,diff,male,0,NA
10,1,1,9,pos,same,male,1,827
10,1,1,10,neu,same,male,1,1034
10,1,1,11,pos,same,male,1,656
10,1,1,12,pos,diff,male,1,892
10,1,1,13,neu,diff,male,1,1256
10,1,1,14,neg,diff,male,1,1260
10,1,1,15,pos,diff,male,1,913
10,1,1,16,pos,diff,male,1,1055
10,1,1,17,pos,same,male,1,683
10,1,1,18,pos,same,male,1,652
10,1,1,19,pos,same,male,1,855
10,1,1,20,pos,same,male,1,1275
10,1,1,21,neu,diff,male,1,1106
10,1,1,22,pos,same,male,1,697
10,1,1,23,pos,diff,male,1,829
10,1,1,24,neg,diff,male,1,1323
10,1,1,25,neu,diff,male,1,1373
10,1,1,26,neg,same,male,1,937
10,1,1,27,pos,diff,male,1,1037
10,1,1,28,neg,same,male,1,932
10,1,1,29,pos,same,male,1,648
10,1,1,30,neu,diff,male,0,1297
10,1,1,31,pos,same,male,1,717
10,1,1,32,neg,diff,male,1,820
10,1,1,33,neg,diff,male,1,992
10,1,1,34,neg,same,male,1,782
10,1,1,35,neg,same,male,1,738
10,1,1,36,neu,diff,male,1,846
10,1,1,37,pos,diff,male,1,751
10,1,1,38,pos,diff,male,1,958
10,1,1,39,neu,diff,male,1,887
10,1,1,40,pos,same,male,1,1297
10,1,1,41,neg,diff,male,0,NA
10,1,1,42,neu,diff,male,1,1204
10,1,1,43,neg,same,male,1,637
10,1,1,44,neu,same,male,1,804
10,1,1,45,neg,same,male,1,749
10,1,1,46,neg,diff,male,1,972
10,1,1,47,neg,same,male,1,872
10,1,1,48,pos,diff,male,1,973
10,1,1,49,pos,diff,male,1,1017
10,1,1,50,pos,same,male,1,670
10,1,1,51,neg,diff,male,1,780
10,1,1,52,pos,same,male,1,704
10,1,1,53,neg,same,male,1,724
10,1,1,54,pos,same,male,1,621
10,1,1,55,neg,same,male,1,785
10,1,2,1,pos,same,female,0,NA
10,1,2,2,neg,same,female,0,NA
10,1,2,3,neu,diff,female,1,818
10,1,2,4,neu,diff,female,1,1134
10,1,2,5,neu,same,female,1,714
10,1,2,6,neu,same,female,0,NA
10,1,2,7,neu,same,female,0,NA
10,1,2,8,pos,diff,female,0,1037
10,1,2,9,pos,diff,female,0,1492
10,1,2,10,neu,diff,female,0,NA
10,1,2,11,neu,diff,female,0,1224
10,1,2,12,neu,same,female,1,948
10,1,2,13,neu,same,female,1,715
10,1,2,14,neu,same,female,1,1106
10,1,2,15,neu,same,female,1,776
10,1,2,16,pos,diff,female,1,780
10,1,2,17,neg,diff,female,1,736
10,1,2,18,neu,diff,female,1,748
10,1,2,19,pos,diff,female,1,1019
10,1,2,20,neu,same,female,0,783
10,1,2,21,pos,same,female,1,579
10,1,2,22,neg,diff,female,1,735
10,1,2,23,neu,diff,female,1,666
10,1,2,24,neg,same,female,1,648
10,1,2,25,neu,same,female,1,801
10,1,2,26,neg,same,female,1,779
10,1,2,27,neg,diff,female,1,703
10,1,2,28,pos,diff,female,1,706
10,1,2,29,neg,same,female,1,569
10,1,2,30,pos,same,female,1,978
10,1,2,31,neg,same,female,1,542
10,1,2,32,neg,diff,female,1,578
10,1,2,33,pos,diff,female,1,654
10,1,2,34,neg,same,female,1,458
10,1,2,35,pos,same,female,1,382
10,1,2,36,neg,same,female,1,657
10,1,2,37,pos,same,female,1,429
10,1,2,38,neg,same,female,1,540
10,1,2,39,pos,same,female,1,496
10,1,2,40,neu,diff,female,1,779
10,1,2,41,neu,diff,female,1,767
10,1,2,42,neg,diff,female,1,769
10,1,2,43,neu,same,female,1,754
10,1,2,44,neg,same,female,1,769
10,1,2,45,neg,diff,female,1,1250
10,1,2,46,pos,diff,female,1,675
10,1,2,47,pos,diff,female,1,754
10,1,2,48,pos,same,female,1,480
10,1,2,49,pos,same,female,1,698
10,1,2,50,neu,diff,female,1,733
10,1,2,51,pos,same,female,1,457
10,1,2,52,neu,same,female,1,685
10,1,2,53,neu,diff,female,1,766
10,1,2,54,pos,diff,female,1,912
10,1,2,55,neu,same,female,1,653
10,1,3,1,neu,same,female,0,NA
10,1,3,2,pos,same,female,0,NA
10,1,3,3,neu,same,female,1,770
10,1,3,4,pos,same,female,1,691
10,1,3,5,pos,diff,female,1,660
10,1,3,6,pos,same,female,1,512
10,1,3,7,pos,same,female,1,623
10,1,3,8,neg,diff,female,1,674
10,1,3,9,neu,diff,female,0,945
10,1,3,10,pos,diff,female,1,568
10,1,3,11,neu,same,female,1,785
10,1,3,12,pos,same,female,1,488
10,1,3,13,pos,diff,female,1,705
10,1,3,14,pos,same,female,1,453
10,1,3,15,neu,diff,female,1,648
10,1,3,16,pos,same,female,1,466
10,1,3,17,neg,diff,female,1,808
10,1,3,18,pos,same,female,1,689
10,1,3,19,neg,same,female,1,755
10,1,3,20,neu,diff,female,1,705
10,1,3,21,pos,diff,female,1,1128
10,1,3,22,neg,diff,female,0,593
10,1,3,23,neg,diff,female,1,528
10,1,3,24,neg,same,female,1,673
10,1,3,25,neu,diff,female,1,767
10,1,3,26,neg,same,female,1,593
10,1,3,27,neu,same,female,1,511
10,1,3,28,neg,same,female,1,1102
10,1,3,29,neu,same,female,1,706
10,1,3,30,neu,diff,female,1,904
10,1,3,31,pos,diff,female,1,675
10,1,3,32,neg,diff,female,1,674
10,1,3,33,pos,same,female,1,672
10,1,3,34,pos,diff,female,1,687
10,1,3,35,pos,same,female,1,448
10,1,3,36,neu,diff,female,1,721
10,1,3,37,neu,diff,female,1,635
10,1,3,38,neu,same,female,1,561
10,1,3,39,pos,diff,female,1,1114
10,1,3,40,neg,diff,female,1,561
10,1,3,41,neu,diff,female,1,1226
10,1,3,42,neg,same,female,1,777
10,1,3,43,pos,diff,female,1,605
10,1,3,44,neg,same,female,1,446
10,1,3,45,pos,same,female,1,431
10,1,3,46,neg,same,female,1,542
10,1,3,47,pos,same,female,1,450
10,1,3,48,neg,same,female,1,467
10,1,3,49,neg,diff,female,1,729
10,1,3,50,neg,same,female,1,435
10,1,3,51,neu,diff,female,1,833
10,1,3,52,neg,same,female,1,576
10,1,3,53,neu,same,female,1,684
10,1,3,54,neg,same,female,1,733
10,1,3,55,pos,diff,female,1,633
10,1,4,1,neg,diff,male,0,NA
10,1,4,2,neu,diff,male,0,NA
10,1,4,3,neu,diff,male,1,828
10,1,4,4,neu,same,male,1,907
10,1,4,5,neu,same,male,1,618
10,1,4,6,neu,same,male,1,957
10,1,4,7,neu,same,male,1,740
10,1,4,8,neu,same,male,1,559
10,1,4,9,neg,diff,male,1,808
10,1,4,10,pos,diff,male,1,753
10,1,4,11,pos,diff,male,1,800
10,1,4,12,pos,same,male,1,697
10,1,4,13,pos,same,male,1,589
10,1,4,14,pos,same,male,1,428
10,1,4,15,pos,same,male,1,714
10,1,4,16,neg,diff,male,1,545
10,1,4,17,pos,same,male,1,503
10,1,4,18,neu,diff,male,1,867
10,1,4,19,neg,diff,male,0,1002
10,1,4,20,neu,same,male,1,699
10,1,4,21,neg,same,male,1,831
10,1,4,22,neu,same,male,1,1086
10,1,4,23,pos,diff,male,1,495
10,1,4,24,neu,same,male,1,443
10,1,4,25,pos,same,male,1,844
10,1,4,26,neg,diff,male,1,621
10,1,4,27,pos,same,male,1,593
10,1,4,28,neu,diff,male,1,768
10,1,4,29,pos,same,male,1,497
10,1,4,30,neg,diff,male,1,685
10,1,4,31,neg,diff,male,1,638
10,1,4,32,neg,same,male,0,1127
10,1,4,33,neg,same,male,1,945
10,1,4,34,neu,diff,male,1,823
10,1,4,35,neg,same,male,1,531
10,1,4,36,neu,same,male,1,663
10,1,4,37,neu,diff,male,1,739
10,1,4,38,pos,diff,male,1,959
10,1,4,39,neu,same,male,1,904
10,1,4,40,neu,diff,male,1,788
10,1,4,41,neg,diff,male,1,778
10,1,4,42,neu,same,male,1,1006
10,1,4,43,pos,diff,male,1,703
10,1,4,44,neg,diff,male,1,755
10,1,4,45,pos,same,male,1,498
10,1,4,46,neu,diff,male,0,654
10,1,4,47,pos,same,male,1,569
10,1,4,48,neu,same,male,1,995
10,1,4,49,pos,same,male,1,417
10,1,4,50,neu,same,male,1,685
10,1,4,51,neu,diff,male,1,670
10,1,4,52,neu,same,male,1,749
10,1,4,53,neg,diff,male,1,732
10,1,4,54,pos,diff,male,1,695
10,1,4,55,pos,diff,male,1,587
10,1,5,1,neg,diff,female,0,NA
10,1,5,2,pos,diff,female,0,NA
10,1,5,3,neu,diff,female,1,817
10,1,5,4,neg,diff,female,1,717
10,1,5,5,neg,diff,female,1,1059
10,1,5,6,neg,same,female,1,1088
10,1,5,7,neg,same,female,1,673
10,1,5,8,neu,diff,female,1,704
10,1,5,9,neg,same,female,1,611
10,1,5,10,pos,diff,female,1,743
10,1,5,11,pos,diff,female,1,931
10,1,5,12,neg,diff,female,1,791
10,1,5,13,neg,diff,female,1,734
10,1,5,14,neg,same,female,1,618
10,1,5,15,neg,same,female,1,638
10,1,5,16,neu,diff,female,1,835
10,1,5,17,pos,diff,female,1,658
10,1,5,18,neu,same,female,1,894
10,1,5,19,neg,diff,female,1,666
10,1,5,20,neu,same,female,1,728
10,1,5,21,neg,same,female,1,881
10,1,5,22,neu,same,female,1,731
10,1,5,23,neg,same,female,1,663
10,1,5,24,neu,same,female,1,467
10,1,5,25,neg,same,female,1,601
10,1,5,26,neu,same,female,1,666
10,1,5,27,neg,same,female,1,553
10,1,5,28,pos,diff,female,1,1055
10,1,5,29,neu,diff,female,1,891
10,1,5,30,neu,diff,female,1,887
10,1,5,31,neu,same,female,1,625
10,1,5,32,neu,same,female,1,583
10,1,5,33,neu,same,female,1,531
10,1,5,34,neg,diff,female,1,711
10,1,5,35,neg,diff,female,1,782
10,1,5,36,pos,diff,female,1,705
10,1,5,37,pos,diff,female,1,776
10,1,5,38,neu,diff,female,1,796
10,1,5,39,pos,same,female,1,611
10,1,5,40,neu,same,female,1,580
10,1,5,41,neu,diff,female,1,832
10,1,5,42,neu,same,female,1,590
10,1,5,43,neu,same,female,1,429
10,1,5,44,pos,diff,female,1,667
10,1,5,45,neg,diff,female,1,570
10,1,5,46,neg,diff,female,1,627
10,1,5,47,neg,same,female,1,490
10,1,5,48,neg,same,female,1,483
10,1,5,49,pos,diff,female,1,843
10,1,5,50,pos,diff,female,1,812
10,1,5,51,neg,diff,female,1,680
10,1,5,52,neu,diff,female,1,857
10,1,5,53,pos,diff,female,1,653
10,1,5,54,pos,diff,female,1,697
10,1,5,55,neu,diff,female,1,685
10,1,6,1,neg,diff,male,0,NA
10,1,6,2,pos,diff,male,0,NA
10,1,6,3,neu,diff,male,1,865
10,1,6,4,pos,same,male,1,535
10,1,6,5,neg,diff,male,1,683
10,1,6,6,neu,diff,male,1,604
10,1,6,7,neg,same,male,1,750
10,1,6,8,neu,same,male,1,588
10,1,6,9,neg,same,male,1,619
10,1,6,10,neu,same,male,1,559
10,1,6,11,neu,diff,male,1,744
10,1,6,12,neu,same,male,1,534
10,1,6,13,neu,same,male,1,490
10,1,6,14,neg,diff,male,1,643
10,1,6,15,neu,same,male,1,477
10,1,6,16,pos,diff,male,1,835
10,1,6,17,neg,diff,male,1,1074
10,1,6,18,pos,same,male,1,753
10,1,6,19,neg,same,male,1,479
10,1,6,20,neu,diff,male,1,744
10,1,6,21,pos,diff,male,1,563
10,1,6,22,neu,same,male,1,412
10,1,6,23,neu,diff,male,1,712
10,1,6,24,neg,diff,male,1,671
10,1,6,25,neu,same,male,1,381
10,1,6,26,pos,diff,male,1,657
10,1,6,27,neu,same,male,1,461
10,1,6,28,pos,same,male,1,513
10,1,6,29,neu,same,male,1,527
10,1,6,30,neu,diff,male,1,688
10,1,6,31,neu,same,male,1,386
10,1,6,32,neu,same,male,1,520
10,1,6,33,neu,same,male,1,505
10,1,6,34,neu,same,male,1,488
10,1,6,35,neu,same,male,1,529
10,1,6,36,pos,diff,male,1,466
10,1,6,37,neu,same,male,1,457
10,1,6,38,pos,same,male,1,540
10,1,6,39,neg,diff,male,1,736
10,1,6,40,neu,diff,male,1,780
10,1,6,41,neu,diff,male,1,624
10,1,6,42,neu,same,male,1,468
10,1,6,43,neg,diff,male,1,635
10,1,6,44,neu,same,male,1,481
10,1,6,45,pos,diff,male,1,874
10,1,6,46,neg,diff,male,1,865
10,1,6,47,neu,diff,male,1,549
10,1,6,48,neg,same,male,1,683
10,1,6,49,neu,same,male,1,461
10,1,6,50,neu,diff,male,0,NA
10,1,6,51,neg,diff,male,0,764
10,1,6,52,neu,same,male,1,605
10,1,6,53,neg,same,male,1,638
10,1,6,54,neg,diff,male,1,533
10,1,6,55,neu,diff,male,1,744
11,1,1,1,neu,same,male,0,NA
11,1,1,2,neu,same,male,0,NA
11,1,1,3,neu,same,male,0,572
11,1,1,4,pos,diff,male,0,NA
11,1,1,5,neu,same,male,0,831
11,1,1,6,pos,same,male,1,798
11,1,1,7,pos,diff,male,1,885
11,1,1,8,pos,same,male,1,462
11,1,1,9,neu,diff,male,1,1265
11,1,1,10,neg,diff,male,1,1128
11,1,1,11,neg,diff,male,0,1057
11,1,1,12,neg,same,male,1,765
11,1,1,13,neg,same,male,1,638
11,1,1,14,pos,diff,male,1,647
11,1,1,15,neu,diff,male,1,1201
11,1,1,16,neu,diff,male,0,NA
11,1,1,17,neu,same,male,1,945
11,1,1,18,neg,diff,male,1,1336
11,1,1,19,neg,diff,male,1,876
11,1,1,20,neg,same,male,1,435
11,1,1,21,neg,same,male,1,673
11,1,1,22,neg,same,male,1,880
11,1,1,23,neu,diff,male,1,1033
11,1,1,24,neg,same,male,1,784
11,1,1,25,neu,same,male,0,724
11,1,1,26,neu,diff,male,1,1453
11,1,1,27,pos,diff,male,1,793
11,1,1,28,neg,diff,male,1,800
11,1,1,29,neu,diff,male,1,1049
11,1,1,30,neg,same,male,1,498
11,1,1,31,neu,same,male,1,702
11,1,1,32,neg,same,male,1,498
11,1,1,33,neg,diff,male,0,1214
11,1,1,34,neg,same,male,0,NA
11,1,1,35,pos,diff,male,0,NA
11,1,1,36,pos,diff,male,0,NA
11,1,1,37,pos,same,male,1,703
11,1,1,38,neu,diff,male,1,1123
11,1,1,39,neg,diff,male,1,1227
11,1,1,40,neg,diff,male,0,906
11,1,1,41,neu,diff,male,0,NA
11,1,1,42,neg,same,male,0,NA
11,1,1,43,neu,same,male,1,839
11,1,1,44,pos,diff,male,0,NA
11,1,1,45,neu,same,male,0,NA
11,1,1,46,pos,same,male,0,NA
11,1,1,47,neu,same,male,0,NA
11,1,1,48,neg,diff,male,0,NA
11,1,1,49,neu,same,male,1,871
11,1,1,50,neg,same,male,1,622
11,1,1,51,neu,same,male,0,NA
11,1,1,52,pos,diff,male,1,1498
11,1,1,53,pos,diff,male,1,1262
11,1,1,54,pos,same,male,1,482
11,1,1,55,neu,diff,male,1,412
11,1,2,1,neu,diff,male,0,NA
11,1,2,2,pos,diff,male,0,NA
11,1,2,3,neu,same,male,1,1202
11,1,2,4,neg,diff,male,1,1291
11,1,2,5,neg,diff,male,1,1111
11,1,2,6,neg,same,male,1,606
11,1,2,7,neg,same,male,1,799
11,1,2,8,neg,same,male,1,665
11,1,2,9,neg,same,male,1,468
11,1,2,10,pos,diff,male,1,939
11,1,2,11,pos,diff,male,1,895
11,1,2,12,neg,diff,male,1,795
11,1,2,13,neg,diff,male,1,1185
11,1,2,14,neg,same,male,1,584
11,1,2,15,pos,diff,male,1,676
11,1,2,16,pos,diff,male,1,707
11,1,2,17,pos,same,male,1,441
11,1,2,18,neg,diff,male,1,602
11,1,2,19,pos,same,male,0,652
11,1,2,20,neu,diff,male,1,1285
11,1,2,21,pos,same,male,0,686
11,1,2,22,neu,same,male,0,NA
11,1,2,23,pos,same,male,0,727
11,1,2,24,neu,same,male,1,896
11,1,2,25,pos,same,male,1,1004
11,1,2,26,neu,same,male,0,NA
11,1,2,27,pos,same,male,0,1235
11,1,2,28,pos,diff,male,1,1202
11,1,2,29,pos,same,male,1,859
11,1,2,30,neu,diff,male,1,799
11,1,2,31,neu,diff,male,1,985
11,1,2,32,neu,same,male,1,615
11,1,2,33,neu,same,male,1,891
11,1,2,34,neu,same,male,1,967
11,1,2,35,neu,same,male,1,465
11,1,2,36,neu,same,male,1,564
11,1,2,37,neg,diff,male,1,1070
11,1,2,38,neg,diff,male,1,892
11,1,2,39,pos,diff,male,1,760
11,1,2,40,pos,diff,male,1,969
11,1,2,41,neu,diff,male,1,867
11,1,2,42,pos,same,male,1,921
11,1,2,43,neu,same,male,0,NA
11,1,2,44,neg,diff,male,0,NA
11,1,2,45,neg,diff,male,0,1201
11,1,2,46,pos,diff,male,0,NA
11,1,2,47,neg,same,male,0,1266
11,1,2,48,pos,same,male,1,889
11,1,2,49,neu,diff,male,1,722
11,1,2,50,neu,diff,male,0,1499
11,1,2,51,neg,diff,male,0,NA
11,1,2,52,pos,diff,male,1,1047
11,1,2,53,neg,same,male,1,416
11,1,2,54,neu,diff,male,1,1020
11,1,2,55,neg,same,male,0,NA
11,1,3,1,neg,same,female,0,852
11,1,3,2,neg,same,female,1,728
11,1,3,3,pos,diff,female,1,561
11,1,3,4,neg,same,female,1,410
11,1,3,5,pos,same,female,1,1011
11,1,3,6,neu,diff,female,1,1255
11,1,3,7,neg,diff,female,0,1099
11,1,3,8,neu,same,female,0,NA
11,1,3,9,neg,same,female,1,1253
11,1,3,10,neg,diff,female,0,NA
11,1,3,11,pos,diff,female,0,NA
11,1,3,12,pos,diff,female,0,NA
11,1,3,13,pos,same,female,0,NA
11,1,3,14,pos,same,female,0,NA
11,1,3,15,neu,diff,female,0,NA
11,1,3,16,pos,same,female,0,NA
11,1,3,17,neu,same,female,0,1213
11,1,3,18,neg,diff,female,1,809
11,1,3,19,neg,diff,female,0,1250
11,1,3,20,neg,same,female,0,NA
11,1,3,21,neg,same,female,0,NA
11,1,3,22,neg,same,female,0,NA
11,1,3,23,neg,same,female,1,457
11,1,3,24,neg,same,female,1,476
11,1,3,25,pos,diff,female,1,851
11,1,3,26,neg,same,female,1,1044
11,1,3,27,pos,same,female,1,814
11,1,3,28,neu,diff,female,1,841
11,1,3,29,neg,diff,female,1,939
11,1,3,30,neu,same,female,1,911
11,1,3,31,pos,diff,female,1,829
11,1,3,32,neu,same,female,1,988
11,1,3,33,pos,same,female,1,875
11,1,3,34,pos,diff,female,0,NA
11,1,3,35,neu,diff,female,0,1113
11,1,3,36,neu,diff,female,0,NA
11,1,3,37,neg,diff,female,0,NA
11,1,3,38,neg,diff,female,0,NA
11,1,3,39,neg,same,female,1,645
11,1,3,40,neg,same,female,0,NA
11,1,3,41,pos,diff,female,0,NA
11,1,3,42,neu,diff,female,1,1388
11,1,3,43,neu,diff,female,0,NA
11,1,3,44,neg,diff,female,1,1252
11,1,3,45,neu,same,female,0,NA
11,1,3,46,pos,diff,female,1,671
11,1,3,47,neg,diff,female,1,1086
11,1,3,48,neg,diff,female,1,1199
11,1,3,49,neu,diff,female,1,1144
11,1,3,50,neg,same,female,1,1255
11,1,3,51,neu,same,female,0,NA
11,1,3,52,neg,same,female,0,NA
11,1,3,53,pos,diff,female,1,1355
11,1,3,54,neu,diff,female,0,NA
11,1,3,55,neu,diff,female,1,665
11,1,4,1,neg,diff,female,0,NA
11,1,4,2,neu,diff,female,0,NA
11,1,4,3,pos,diff,female,1,1023
11,1,4,4,neg,diff,female,1,1491
11,1,4,5,pos,same,female,1,839
11,1,4,6,pos,diff,female,1,856
11,1,4,7,pos,same,female,1,604
11,1,4,8,pos,same,female,1,702
11,1,4,9,pos,same,female,1,641
11,1,4,10,pos,same,female,1,523
11,1,4,11,pos,same,female,1,444
11,1,4,12,neg,diff,female,1,653
11,1,4,13,pos,same,female,1,985
11,1,4,14,neg,same,female,0,728
11,1,4,15,neu,diff,female,1,913
11,1,4,16,neg,same,female,1,479
11,1,4,17,neu,same,female,1,1177
11,1,4,18,neu,diff,female,1,669
11,1,4,19,neg,diff,female,1,923
11,1,4,20,neu,same,female,1,861
11,1,4,21,pos,diff,female,1,1201
11,1,4,22,neu,same,female,1,730
11,1,4,23,neu,diff,female,1,1075
11,1,4,24,neg,diff,female,1,1138
11,1,4,25,neg,diff,female,1,958
11,1,4,26,neg,same,female,1,423
11,1,4,27,neu,diff,female,1,1043
11,1,4,28,pos,diff,female,1,748
11,1,4,29,neg,diff,female,1,1339
11,1,4,30,pos,same,female,1,847
11,1,4,31,pos,diff,female,1,1377
11,1,4,32,neg,diff,female,1,1165
11,1,4,33,neg,diff,female,1,685
11,1,4,34,pos,diff,female,1,894
11,1,4,35,pos,diff,female,1,1242
11,1,4,36,neg,diff,female,1,732
11,1,4,37,pos,same,female,1,1208
11,1,4,38,neu,diff,female,1,801
11,1,4,39,pos,same,female,1,1386
11,1,4,40,pos,diff,female,1,1001
11,1,4,41,pos,same,female,1,1195
11,1,4,42,neg,diff,female,1,705
11,1,4,43,neu,diff,female,1,808
11,1,4,44,pos,diff,female,1,769
11,1,4,45,neu,same,female,1,1426
11,1,4,46,neu,diff,female,0,NA
11,1,4,47,neu,same,female,0,NA
11,1,4,48,pos,diff,female,1,599
11,1,4,49,neg,diff,female,1,713
11,1,4,50,neg,diff,female,1,815
11,1,4,51,pos,diff,female,1,587
11,1,4,52,neg,same,female,1,1002
11,1,4,53,neg,diff,female,1,795
11,1,4,54,neg,same,female,1,834
11,1,4,55,pos,diff,female,1,560
11,1,5,1,neg,diff,male,0,NA
11,1,5,2,neu,diff,male,0,NA
11,1,5,3,neu,diff,male,1,630
11,1,5,4,neg,diff,male,1,493
11,1,5,5,neu,same,male,1,905
11,1,5,6,neg,same,male,1,1303
11,1,5,7,neg,diff,male,1,900
11,1,5,8,neu,diff,male,1,1264
11,1,5,9,neu,diff,male,1,788
11,1,5,10,neg,diff,male,1,1178
11,1,5,11,neu,same,male,1,1150
11,1,5,12,neg,same,male,1,781
11,1,5,13,neu,same,male,1,1281
11,1,5,14,neg,same,male,0,1051
11,1,5,15,neu,same,male,1,1204
11,1,5,16,pos,diff,male,1,989
11,1,5,17,neg,diff,male,1,1436
11,1,5,18,pos,same,male,0,NA
11,1,5,19,neu,diff,male,0,NA
11,1,5,20,neu,diff,male,1,1079
11,1,5,21,neg,diff,male,1,888
11,1,5,22,pos,diff,male,1,1025
11,1,5,23,neu,diff,male,1,872
11,1,5,24,pos,same,male,1,879
11,1,5,25,pos,diff,male,1,1112
11,1,5,26,pos,same,male,1,655
11,1,5,27,neg,diff,male,1,667
11,1,5,28,pos,same,male,1,808
11,1,5,29,neu,diff,male,1,706
11,1,5,30,pos,same,male,1,1049
11,1,5,31,neu,same,male,1,1058
11,1,5,32,pos,same,male,1,1086
11,1,5,33,neg,diff,male,0,NA
11,1,5,34,pos,same,male,1,1093
11,1,5,35,neu,diff,male,0,NA
11,1,5,36,pos,same,male,1,848
11,1,5,37,neg,diff,male,1,817
11,1,5,38,pos,same,male,1,941
11,1,5,39,neg,same,male,1,673
11,1,5,40,neu,diff,male,1,592
11,1,5,41,pos,diff,male,1,990
11,1,5,42,neu,same,male,1,989
11,1,5,43,pos,same,male,1,1356
11,1,5,44,neg,diff,male,1,899
11,1,5,45,neu,diff,male,1,1310
11,1,5,46,neu,diff,male,0,NA
11,1,5,47,pos,diff,male,1,1307
11,1,5,48,pos,diff,male,1,1338
11,1,5,49,pos,same,male,1,414
11,1,5,50,pos,same,male,1,842
11,1,5,51,neg,diff,male,1,667
11,1,5,52,pos,same,male,1,1066
11,1,5,53,neg,same,male,1,1433
11,1,5,54,pos,same,male,1,639
11,1,5,55,neg,same,male,0,NA
11,1,6,1,neg,same,female,0,912
11,1,6,2,pos,same,female,0,910
11,1,6,3,neu,diff,female,0,NA
11,1,6,4,pos,same,female,0,NA
11,1,6,5,pos,diff,female,0,NA
11,1,6,6,neu,diff,female,0,NA
11,1,6,7,pos,same,female,1,519
11,1,6,8,neu,same,female,1,1240
11,1,6,9,pos,same,female,1,666
11,1,6,10,neg,diff,female,1,1368
11,1,6,11,neg,diff,female,1,1490
11,1,6,12,neu,diff,female,1,1043
11,1,6,13,neu,diff,female,1,1101
11,1,6,14,neu,same,female,1,801
11,1,6,15,neg,diff,female,1,714
11,1,6,16,pos,diff,female,1,1152
11,1,6,17,neg,same,female,1,399
11,1,6,18,neg,diff,female,1,968
11,1,6,19,pos,diff,female,1,786
11,1,6,20,pos,diff,female,1,728
11,1,6,21,pos,same,female,1,593
11,1,6,22,pos,same,female,1,592
11,1,6,23,pos,same,female,1,463
11,1,6,24,neg,diff,female,1,578
11,1,6,25,pos,same,female,1,430
11,1,6,26,neg,same,female,1,397
11,1,6,27,pos,same,female,1,835
11,1,6,28,pos,diff,female,0,962
11,1,6,29,neu,diff,female,1,507
11,1,6,30,pos,same,female,1,1034
11,1,6,31,neu,same,female,1,720
11,1,6,32,neu,diff,female,0,NA
11,1,6,33,neu,same,female,0,NA
11,1,6,34,neg,diff,female,0,870
11,1,6,35,pos,diff,female,0,NA
11,1,6,36,pos,diff,female,0,NA
11,1,6,37,neg,diff,female,1,569
11,1,6,38,pos,same,female,1,1074
11,1,6,39,neu,diff,female,1,689
11,1,6,40,pos,same,female,1,962
11,1,6,41,pos,diff,female,1,844
11,1,6,42,pos,same,female,1,717
11,1,6,43,neg,diff,female,1,660
11,1,6,44,neg,diff,female,1,688
11,1,6,45,neu,diff,female,1,769
11,1,6,46,neu,diff,female,1,946
11,1,6,47,neu,same,female,1,537
11,1,6,48,pos,diff,female,1,573
11,1,6,49,pos,diff,female,1,632
11,1,6,50,pos,same,female,1,415
11,1,6,51,neg,diff,female,1,587
11,1,6,52,neu,diff,female,1,969
11,1,6,53,neg,same,female,1,435
11,1,6,54,neu,same,female,1,513
11,1,6,55,neg,same,female,1,704
12,1,1,1,neg,same,female,0,827
12,1,1,2,neg,same,female,0,NA
12,1,1,3,neg,same,female,0,NA
12,1,1,4,pos,diff,female,1,1258
12,1,1,5,neu,diff,female,1,639
12,1,1,6,neg,diff,female,1,920
12,1,1,7,pos,diff,female,1,937
12,1,1,8,pos,diff,female,1,557
12,1,1,9,neg,diff,female,1,644
12,1,1,10,neu,diff,female,1,765
12,1,1,11,pos,diff,female,0,558
12,1,1,12,neu,same,female,1,567
12,1,1,13,neg,diff,female,1,480
12,1,1,14,neg,diff,female,0,1082
12,1,1,15,neg,same,female,0,1147
12,1,1,16,neg,same,female,1,874
12,1,1,17,neg,same,female,1,640
12,1,1,18,pos,diff,female,0,NA
12,1,1,19,neg,same,female,0,NA
12,1,1,20,neg,diff,female,1,984
12,1,1,21,neu,diff,female,1,900
12,1,1,22,neu,diff,female,0,NA
12,1,1,23,neu,same,female,0,1207
12,1,1,24,neg,diff,female,0,NA
12,1,1,25,neg,diff,female,0,NA
12,1,1,26,pos,diff,female,0,NA
12,1,1,27,pos,diff,female,1,1065
12,1,1,28,neg,diff,female,1,775
12,1,1,29,neu,diff,female,1,699
12,1,1,30,neu,diff,female,1,559
12,1,1,31,neu,same,female,1,504
12,1,1,32,neu,same,female,1,503
12,1,1,33,neg,diff,female,1,835
12,1,1,34,neu,same,female,1,561
12,1,1,35,neg,same,female,0,NA
12,1,1,36,neu,same,female,0,NA
12,1,1,37,pos,diff,female,1,1404
12,1,1,38,neu,same,female,1,1197
12,1,1,39,pos,same,female,0,1044
12,1,1,40,neu,same,female,1,526
12,1,1,41,pos,same,female,1,655
12,1,1,42,neg,diff,female,1,459
12,1,1,43,pos,same,female,1,638
12,1,1,44,neu,diff,female,1,632
12,1,1,45,neg,diff,female,1,558
12,1,1,46,neu,same,female,1,551
12,1,1,47,neg,same,female,1,878
12,1,1,48,neu,same,female,1,485
12,1,1,49,neg,same,female,1,638
12,1,1,50,neu,same,female,1,484
12,1,1,51,pos,diff,female,1,733
12,1,1,52,neu,same,female,0,793
12,1,1,53,pos,same,female,1,576
12,1,1,54,pos,diff,female,1,764
12,1,1,55,pos,same,female,1,637
12,1,2,1,pos,same,female,0,NA
12,1,2,2,pos,same,female,0,NA
12,1,2,3,neg,diff,female,1,488
12,1,2,4,neg,diff,female,0,NA
12,1,2,5,neu,diff,female,1,1330
12,1,2,6,neg,same,female,1,915
12,1,2,7,neu,same,female,1,482
12,1,2,8,neg,same,female,0,NA
12,1,2,9,neu,same,female,0,NA
12,1,2,10,neu,diff,female,1,1271
12,1,2,11,neu,same,female,1,606
12,1,2,12,neu,same,female,1,543
12,1,2,13,neu,same,female,1,739
12,1,2,14,pos,diff,female,1,687
12,1,2,15,neu,same,female,1,912
12,1,2,16,pos,same,female,1,463
12,1,2,17,pos,diff,female,1,739
12,1,2,18,pos,same,female,1,431
12,1,2,19,neu,diff,female,1,765
12,1,2,20,neg,diff,female,1,622
12,1,2,21,neg,diff,female,1,610
12,1,2,22,neg,same,female,0,579
12,1,2,23,pos,diff,female,1,735
12,1,2,24,neg,same,female,1,491
12,1,2,25,pos,same,female,1,420
12,1,2,26,neu,diff,female,1,512
12,1,2,27,pos,same,female,1,527
12,1,2,28,neg,diff,female,1,672
12,1,2,29,pos,same,female,1,1454
12,1,2,30,neg,same,female,0,1403
12,1,2,31,pos,same,female,1,892
12,1,2,32,neu,diff,female,1,1144
12,1,2,33,pos,same,female,0,NA
12,1,2,34,neu,same,female,0,NA
12,1,2,35,neu,diff,female,1,913
12,1,2,36,neg,diff,female,1,1280
12,1,2,37,neg,diff,female,0,NA
12,1,2,38,neg,same,female,0,NA
12,1,2,39,pos,diff,female,0,NA
12,1,2,40,neu,diff,female,1,975
12,1,2,41,neu,diff,female,1,1179
12,1,2,42,neu,same,female,0,NA
12,1,2,43,neu,same,female,0,1174
12,1,2,44,pos,diff,female,1,842
12,1,2,45,neu,same,female,1,507
12,1,2,46,neg,diff,female,1,1482
12,1,2,47,pos,diff,female,0,459
12,1,2,48,neu,diff,female,1,591
12,1,2,49,neu,diff,female,1,1422
12,1,2,50,neu,same,female,1,562
12,1,2,51,neu,same,female,1,699
12,1,2,52,neu,same,female,1,543
12,1,2,53,neu,same,female,1,643
12,1,2,54,neu,same,female,1,460
12,1,2,55,neg,diff,female,0,NA
12,1,3,1,neu,diff,female,0,913
12,1,3,2,neu,diff,female,1,1232
12,1,3,3,neg,diff,female,1,719
12,1,3,4,neu,same,female,1,1432
12,1,3,5,neg,same,female,1,863
12,1,3,6,neu,same,female,1,947
12,1,3,7,neu,diff,female,0,NA
12,1,3,8,pos,diff,female,0,NA
12,1,3,9,neg,diff,female,0,NA
12,1,3,10,neu,diff,female,0,1399
12,1,3,11,pos,diff,female,1,713
12,1,3,12,neu,same,female,1,383
12,1,3,13,neu,diff,female,1,723
12,1,3,14,pos,diff,female,1,844
12,1,3,15,neg,diff,female,1,1198
12,1,3,16,pos,same,female,0,NA
12,1,3,17,neu,diff,female,0,NA
12,1,3,18,pos,same,female,1,1427
12,1,3,19,neg,diff,female,1,922
12,1,3,20,neg,diff,female,1,1323
12,1,3,21,neu,diff,female,1,637
12,1,3,22,neg,same,female,1,627
12,1,3,23,neu,same,female,1,1098
12,1,3,24,neg,same,female,1,1246
12,1,3,25,neg,diff,female,1,767
12,1,3,26,neg,same,female,1,465
12,1,3,27,neg,same,female,1,772
12,1,3,28,neg,same,female,1,472
12,1,3,29,neg,same,female,1,671
12,1,3,30,neg,same,female,1,557
12,1,3,31,pos,diff,female,1,1124
12,1,3,32,neu,diff,female,1,1357
12,1,3,33,pos,same,female,1,516
12,1,3,34,neu,same,female,1,787
12,1,3,35,neu,diff,female,1,1193
12,1,3,36,neg,diff,female,1,864
12,1,3,37,neu,same,female,1,580
12,1,3,38,neg,same,female,1,672
12,1,3,39,neu,same,female,1,445
12,1,3,40,neu,diff,female,1,1086
12,1,3,41,neg,diff,female,1,672
12,1,3,42,neg,diff,female,1,766
12,1,3,43,neu,diff,female,1,976
12,1,3,44,neg,same,female,1,972
12,1,3,45,pos,diff,female,1,776
12,1,3,46,neg,same,female,1,892
12,1,3,47,neu,diff,female,1,632
12,1,3,48,neu,diff,female,1,718
12,1,3,49,neg,diff,female,1,967
12,1,3,50,neg,diff,female,1,785
12,1,3,51,neu,diff,female,1,1047
12,1,3,52,neg,same,female,1,673
12,1,3,53,neu,same,female,1,1199
12,1,3,54,neu,diff,female,1,921
12,1,3,55,neu,same,female,1,458
12,1,4,1,neg,same,male,0,NA
12,1,4,2,neg,same,male,0,NA
12,1,4,3,pos,diff,male,1,606
12,1,4,4,neu,diff,male,1,1168
12,1,4,5,neu,diff,male,0,497
12,1,4,6,pos,diff,male,1,861
12,1,4,7,neu,same,male,1,881
12,1,4,8,pos,same,male,1,1257
12,1,4,9,neu,same,male,1,1213
12,1,4,10,neg,diff,male,1,809
12,1,4,11,neu,same,male,1,467
12,1,4,12,neg,same,male,1,1257
12,1,4,13,neu,same,male,1,493
12,1,4,14,pos,diff,male,1,713
12,1,4,15,neu,same,male,1,512
12,1,4,16,neu,diff,male,1,542
12,1,4,17,neg,diff,male,1,978
12,1,4,18,pos,diff,male,1,654
12,1,4,19,neg,same,male,1,554
12,1,4,20,neg,diff,male,1,688
12,1,4,21,pos,diff,male,1,625
12,1,4,22,pos,diff,male,1,1032
12,1,4,23,pos,same,male,1,431
12,1,4,24,neu,diff,male,1,669
12,1,4,25,neu,diff,male,1,636
12,1,4,26,neg,diff,male,1,642
12,1,4,27,neg,diff,male,1,652
12,1,4,28,neu,diff,male,1,855
12,1,4,29,neg,same,male,1,1179
12,1,4,30,neu,same,male,1,527
12,1,4,31,neg,same,male,1,449
12,1,4,32,neg,diff,male,1,850
12,1,4,33,pos,diff,male,1,787
12,1,4,34,neg,same,male,1,538
12,1,4,35,pos,same,male,1,990
12,1,4,36,neu,diff,male,1,652
12,1,4,37,pos,same,male,1,872
12,1,4,38,neg,diff,male,0,NA
12,1,4,39,neu,diff,male,0,1429
12,1,4,40,pos,diff,male,0,NA
12,1,4,41,neu,same,male,1,963
12,1,4,42,pos,same,male,1,700
12,1,4,43,pos,diff,male,1,1392
12,1,4,44,pos,same,male,1,751
12,1,4,45,pos,same,male,1,525
12,1,4,46,neg,diff,male,1,735
12,1,4,47,pos,same,male,1,922
12,1,4,48,neu,diff,male,1,828
12,1,4,49,neu,diff,male,1,1002
12,1,4,50,pos,diff,male,1,1100
12,1,4,51,neu,same,male,1,512
12,1,4,52,pos,same,male,1,558
12,1,4,53,pos,diff,male,1,663
12,1,4,54,pos,same,male,1,371
12,1,4,55,pos,same,male,1,455
12,1,5,1,neu,same,male,0,NA
12,1,5,2,neg,same,male,0,NA
12,1,5,3,neu,same,male,1,1286
12,1,5,4,neg,same,male,1,944
12,1,5,5,neg,diff,male,1,708
12,1,5,6,neu,diff,male,1,682
12,1,5,7,neg,same,male,1,427
12,1,5,8,neg,diff,male,1,1002
12,1,5,9,neg,same,male,1,507
12,1,5,10,pos,diff,male,1,858
12,1,5,11,pos,diff,male,1,1069
12,1,5,12,neg,diff,male,1,699
12,1,5,13,neg,diff,male,1,735
12,1,5,14,neg,same,male,1,731
12,1,5,15,neg,same,male,1,759
12,1,5,16,neg,same,male,1,600
12,1,5,17,neg,same,male,1,554
12,1,5,18,neg,same,male,1,432
12,1,5,19,neg,same,male,1,511
12,1,5,20,neu,diff,male,1,781
12,1,5,21,neu,diff,male,1,737
12,1,5,22,pos,diff,male,1,669
12,1,5,23,neu,same,male,1,987
12,1,5,24,neg,diff,male,1,762
12,1,5,25,neu,same,male,1,731
12,1,5,26,neg,same,male,1,439
12,1,5,27,neu,same,male,1,648
12,1,5,28,pos,diff,male,1,754
12,1,5,29,neu,same,male,1,768
12,1,5,30,neg,diff,male,1,593
12,1,5,31,neu,same,male,1,784
12,1,5,32,neu,diff,male,1,596
12,1,5,33,neu,same,male,1,514
12,1,5,34,neu,same,male,1,513
12,1,5,35,pos,diff,male,1,783
12,1,5,36,neu,same,male,1,947
12,1,5,37,neg,diff,male,1,762
12,1,5,38,pos,diff,male,0,NA
12,1,5,39,neg,same,male,0,NA
12,1,5,40,neu,diff,male,0,NA
12,1,5,41,neg,same,male,0,NA
12,1,5,42,neu,same,male,1,849
12,1,5,43,neg,same,male,1,690
12,1,5,44,neg,diff,male,1,579
12,1,5,45,neg,same,male,1,510
12,1,5,46,neg,same,male,1,557
12,1,5,47,neg,same,male,1,403
12,1,5,48,neg,same,male,1,508
12,1,5,49,neg,same,male,1,395
12,1,5,50,neg,same,male,1,401
12,1,5,51,neg,same,male,1,394
12,1,5,52,neg,same,male,1,513
12,1,5,53,neg,same,male,1,479
12,1,5,54,neg,same,male,1,457
12,1,5,55,pos,diff,male,1,940
12,1,6,1,pos,diff,male,0,NA
12,1,6,2,neu,diff,male,0,NA
12,1,6,3,neu,diff,male,1,1376
12,1,6,4,pos,diff,male,1,812
12,1,6,5,neg,diff,male,1,757
12,1,6,6,neu,diff,male,1,532
12,1,6,7,neg,same,male,1,853
12,1,6,8,neg,diff,male,1,601
12,1,6,9,neg,same,male,1,538
12,1,6,10,neg,same,male,1,574
12,1,6,11,neu,diff,male,1,666
12,1,6,12,neu,diff,male,1,631
12,1,6,13,neu,same,male,1,414
12,1,6,14,neu,same,male,1,393
12,1,6,15,pos,diff,male,1,688
12,1,6,16,neu,same,male,1,449
12,1,6,17,pos,same,male,1,1410
12,1,6,18,pos,diff,male,1,644
12,1,6,19,pos,same,male,1,445
12,1,6,20,neg,diff,male,1,702
12,1,6,21,pos,same,male,1,482
12,1,6,22,neg,same,male,1,1115
12,1,6,23,neg,diff,male,1,882
12,1,6,24,neu,diff,male,1,779
12,1,6,25,pos,diff,male,1,703
12,1,6,26,pos,diff,male,1,979
12,1,6,27,pos,same,male,1,687
12,1,6,28,neg,diff,male,1,624
12,1,6,29,neu,diff,male,1,612
12,1,6,30,neu,diff,male,1,1064
12,1,6,31,neu,same,male,1,516
12,1,6,32,neu,same,male,1,435
12,1,6,33,neu,same,male,1,577
12,1,6,34,pos,diff,male,1,1053
12,1,6,35,neu,same,male,1,537
12,1,6,36,neg,diff,male,1,605
12,1,6,37,neg,diff,male,1,878
12,1,6,38,neg,same,male,1,501
12,1,6,39,neg,same,male,1,720
12,1,6,40,neg,same,male,1,538
12,1,6,41,neu,diff,male,1,686
12,1,6,42,pos,diff,male,1,1103
12,1,6,43,neu,same,male,1,611
12,1,6,44,neg,diff,male,1,579
12,1,6,45,pos,diff,male,1,751
12,1,6,46,neg,same,male,1,1245
12,1,6,47,pos,same,male,0,NA
12,1,6,48,pos,diff,male,0,NA
12,1,6,49,pos,same,male,0,1103
12,1,6,50,pos,same,male,1,467
12,1,6,51,neg,diff,male,1,681
12,1,6,52,pos,same,male,0,1402
12,1,6,53,neg,same,male,1,1388
12,1,6,54,pos,same,male,0,1339
12,1,6,55,neu,diff,male,1,1071
13,1,1,1,pos,same,male,0,NA
13,1,1,2,neu,same,male,0,NA
13,1,1,3,pos,same,male,1,588
13,1,1,4,neg,diff,male,1,1070
13,1,1,5,pos,same,male,1,1069
13,1,1,6,neu,diff,male,1,1227
13,1,1,7,neu,diff,male,1,1299
13,1,1,8,neu,same,male,1,696
13,1,1,9,pos,diff,male,1,790
13,1,1,10,neu,same,male,1,896
13,1,1,11,neg,diff,male,1,694
13,1,1,12,pos,diff,male,1,692
13,1,1,13,neg,same,male,1,1186
13,1,1,14,neg,diff,male,1,907
13,1,1,15,neu,diff,male,1,976
13,1,1,16,neu,diff,male,1,707
13,1,1,17,neg,diff,male,1,1184
13,1,1,18,neu,same,male,1,1162
13,1,1,19,neg,same,male,1,885
13,1,1,20,neu,same,male,0,794
13,1,1,21,neg,same,male,1,724
13,1,1,22,pos,diff,male,1,897
13,1,1,23,neu,diff,male,0,1478
13,1,1,24,pos,same,male,1,821
13,1,1,25,neu,same,male,1,685
13,1,1,26,pos,same,male,1,1018
13,1,1,27,pos,diff,male,1,794
13,1,1,28,neu,diff,male,1,628
13,1,1,29,pos,same,male,1,917
13,1,1,30,neu,same,male,1,1097
13,1,1,31,pos,same,male,1,887
13,1,1,32,neu,same,male,1,557
13,1,1,33,pos,same,male,1,864
13,1,1,34,neu,same,male,1,503
13,1,1,35,pos,same,male,1,684
13,1,1,36,neu,same,male,1,826
13,1,1,37,neg,diff,male,1,931
13,1,1,38,neu,same,male,1,583
13,1,1,39,neg,same,male,1,713
13,1,1,40,neg,diff,male,1,1110
13,1,1,41,pos,diff,male,1,979
13,1,1,42,neu,diff,male,1,1126
13,1,1,43,pos,same,male,1,834
13,1,1,44,pos,diff,male,1,826
13,1,1,45,neg,diff,male,1,946
13,1,1,46,neu,diff,male,1,982
13,1,1,47,neg,same,male,1,648
13,1,1,48,pos,diff,male,1,920
13,1,1,49,neu,diff,male,1,1084
13,1,1,50,neu,diff,male,1,794
13,1,1,51,neu,same,male,1,788
13,1,1,52,neu,same,male,1,622
13,1,1,53,neg,diff,male,1,798
13,1,1,54,neu,same,male,1,1032
13,1,1,55,neg,same,male,1,472
13,1,2,1,neg,same,female,0,NA
13,1,2,2,pos,same,female,0,NA
13,1,2,3,neg,same,female,1,827
13,1,2,4,pos,same,female,1,659
13,1,2,5,pos,diff,female,0,NA
13,1,2,6,neu,diff,female,1,812
13,1,2,7,pos,same,female,1,741
13,1,2,8,neu,same,female,1,641
13,1,2,9,pos,same,female,1,688
13,1,2,10,pos,diff,female,1,894
13,1,2,11,neu,diff,female,1,820
13,1,2,12,neu,diff,female,1,861
13,1,2,13,neg,diff,female,1,1332
13,1,2,14,neu,same,female,1,520
13,1,2,15,pos,diff,female,1,1053
13,1,2,16,pos,diff,female,1,956
13,1,2,17,pos,same,female,1,543
13,1,2,18,neg,diff,female,1,595
13,1,2,19,neg,diff,female,1,917
13,1,2,20,neu,diff,female,1,985
13,1,2,21,pos,diff,female,1,779
13,1,2,22,neu,same,female,1,677
13,1,2,23,neu,diff,female,1,804
13,1,2,24,neg,diff,female,1,973
13,1,2,25,neu,same,female,1,559
13,1,2,26,neu,diff,female,1,1251
13,1,2,27,neg,diff,female,1,745
13,1,2,28,neg,diff,female,1,757
13,1,2,29,pos,diff,female,1,704
13,1,2,30,pos,diff,female,0,NA
13,1,2,31,neu,diff,female,0,NA
13,1,2,32,pos,same,female,1,921
13,1,2,33,neu,same,female,1,1085
13,1,2,34,pos,same,female,1,443
13,1,2,35,neu,same,female,1,515
13,1,2,36,pos,same,female,1,632
13,1,2,37,neu,same,female,1,712
13,1,2,38,neu,diff,female,1,1221
13,1,2,39,neu,same,female,1,701
13,1,2,40,neu,same,female,1,570
13,1,2,41,neu,same,female,1,685
13,1,2,42,neu,same,female,1,747
13,1,2,43,neu,same,female,1,839
13,1,2,44,neu,same,female,1,734
13,1,2,45,neu,same,female,1,986
13,1,2,46,neu,same,female,1,1068
13,1,2,47,pos,diff,female,1,1002
13,1,2,48,neg,diff,female,1,636
13,1,2,49,neg,diff,female,1,939
13,1,2,50,pos,diff,female,1,815
13,1,2,51,neu,diff,female,1,760
13,1,2,52,neg,diff,female,1,819
13,1,2,53,pos,diff,female,1,811
13,1,2,54,neg,same,female,1,949
13,1,2,55,pos,same,female,1,1176
13,1,3,1,pos,same,male,0,NA
13,1,3,2,neu,same,male,0,NA
13,1,3,3,neu,diff,male,1,802
13,1,3,4,neu,same,male,1,555
13,1,3,5,neu,same,male,1,1022
13,1,3,6,neu,same,male,1,559
13,1,3,7,pos,diff,male,1,674
13,1,3,8,neu,same,male,1,593
13,1,3,9,neg,diff,male,1,819
13,1,3,10,neu,same,male,1,619
13,1,3,11,pos,diff,male,1,812
13,1,3,12,neu,same,male,1,1013
13,1,3,13,pos,same,male,1,774
13,1,3,14,neu,same,male,1,960
13,1,3,15,neg,diff,male,1,579
13,1,3,16,neu,same,male,1,470
13,1,3,17,neu,diff,male,1,1069
13,1,3,18,neu,same,male,1,683
13,1,3,19,neu,same,male,1,441
13,1,3,20,pos,diff,male,1,769
13,1,3,21,neu,same,male,1,667
13,1,3,22,neg,diff,male,1,666
13,1,3,23,pos,diff,male,1,905
13,1,3,24,neg,same,male,1,990
13,1,3,25,neg,diff,male,1,735
13,1,3,26,neu,diff,male,1,763
13,1,3,27,neg,same,male,1,630
13,1,3,28,neg,diff,male,1,887
13,1,3,29,neg,same,male,1,813
13,1,3,30,pos,diff,male,1,838
13,1,3,31,neu,diff,male,1,829
13,1,3,32,neu,diff,male,1,1141
13,1,3,33,neu,same,male,1,529
13,1,3,34,neu,same,male,1,502
13,1,3,35,neu,same,male,1,459
13,1,3,36,neu,same,male,1,498
13,1,3,37,neu,same,male,1,440
13,1,3,38,neu,same,male,1,528
13,1,3,39,pos,diff,male,1,692
13,1,3,40,pos,diff,male,1,626
13,1,3,41,pos,same,male,1,435
13,1,3,42,neg,diff,male,1,779
13,1,3,43,pos,same,male,1,885
13,1,3,44,neg,same,male,1,635
13,1,3,45,neu,diff,male,1,859
13,1,3,46,neu,diff,male,1,1154
13,1,3,47,neu,same,male,1,413
13,1,3,48,neu,same,male,1,438
13,1,3,49,neu,same,male,1,638
13,1,3,50,neu,same,male,1,622
13,1,3,51,neu,same,male,1,479
13,1,3,52,neg,diff,male,1,662
13,1,3,53,neg,diff,male,1,853
13,1,3,54,neg,same,male,1,428
13,1,3,55,neg,same,male,1,517
13,1,4,1,neu,same,female,0,NA
13,1,4,2,neg,same,female,0,NA
13,1,4,3,neu,same,female,1,546
13,1,4,4,neg,same,female,1,998
13,1,4,5,neg,diff,female,1,663
13,1,4,6,neg,same,female,1,886
13,1,4,7,neg,same,female,1,476
13,1,4,8,neg,same,female,1,595
13,1,4,9,pos,diff,female,1,677
13,1,4,10,neg,same,female,1,835
13,1,4,11,neg,diff,female,1,779
13,1,4,12,neg,same,female,1,613
13,1,4,13,neu,diff,female,1,679
13,1,4,14,neg,same,female,1,581
13,1,4,15,pos,diff,female,1,711
13,1,4,16,neu,diff,female,1,932
13,1,4,17,pos,same,female,1,568
13,1,4,18,neg,diff,female,1,667
13,1,4,19,pos,same,female,1,569
13,1,4,20,pos,diff,female,1,732
13,1,4,21,neg,diff,female,1,744
13,1,4,22,neg,diff,female,1,596
13,1,4,23,neu,diff,female,1,694
13,1,4,24,neg,same,female,1,531
13,1,4,25,pos,diff,female,1,599
13,1,4,26,neg,same,female,1,585
13,1,4,27,pos,same,female,1,779
13,1,4,28,neg,same,female,1,1221
13,1,4,29,neu,diff,female,1,493
13,1,4,30,neg,same,female,1,515
13,1,4,31,neg,diff,female,1,664
13,1,4,32,neg,same,female,1,582
13,1,4,33,pos,diff,female,1,648
13,1,4,34,pos,diff,female,1,471
13,1,4,35,pos,same,female,1,510
13,1,4,36,pos,same,female,1,403
13,1,4,37,pos,same,female,1,573
13,1,4,38,pos,same,female,1,383
13,1,4,39,neu,diff,female,1,633
13,1,4,40,pos,same,female,1,441
13,1,4,41,neu,same,female,1,609
13,1,4,42,pos,same,female,1,419
13,1,4,43,neg,diff,female,1,619
13,1,4,44,pos,same,female,1,412
13,1,4,45,neg,same,female,1,1093
13,1,4,46,neg,diff,female,1,675
13,1,4,47,pos,diff,female,1,769
13,1,4,48,neu,diff,female,1,764
13,1,4,49,pos,same,female,1,663
13,1,4,50,neu,same,female,1,518
13,1,4,51,neu,diff,female,1,699
13,1,4,52,neg,diff,female,0,NA
13,1,4,53,neg,diff,female,0,NA
13,1,4,54,neg,same,female,0,NA
13,1,4,55,neg,same,female,1,1443
13,1,5,1,pos,same,male,0,NA
13,1,5,2,neu,same,male,0,NA
13,1,5,3,pos,same,male,1,407
13,1,5,4,neu,same,male,1,928
13,1,5,5,neu,diff,male,1,1109
13,1,5,6,neg,diff,male,1,722
13,1,5,7,neu,same,male,1,1135
13,1,5,8,neg,same,male,1,426
13,1,5,9,neu,same,male,1,403
13,1,5,10,neg,same,male,1,524
13,1,5,11,pos,diff,male,1,769
13,1,5,12,pos,diff,male,1,795
13,1,5,13,neu,diff,male,1,677
13,1,5,14,neu,diff,male,1,1348
13,1,5,15,neu,same,male,1,647
13,1,5,16,neu,same,male,1,519
13,1,5,17,neg,diff,male,1,780
13,1,5,18,neu,same,male,1,662
13,1,5,19,pos,diff,male,1,662
13,1,5,20,neu,same,male,1,629
13,1,5,21,neu,diff,male,1,485
13,1,5,22,neu,same,male,1,619
13,1,5,23,neu,same,male,1,668
13,1,5,24,pos,diff,male,1,682
13,1,5,25,neg,diff,male,1,696
13,1,5,26,neg,diff,male,1,598
13,1,5,27,pos,diff,male,1,583
13,1,5,28,neu,diff,male,1,713
13,1,5,29,neg,diff,male,1,647
13,1,5,30,neu,same,male,1,711
13,1,5,31,neg,same,male,1,996
13,1,5,32,neg,diff,male,1,1172
13,1,5,33,neg,same,male,1,575
13,1,5,34,pos,diff,male,1,705
13,1,5,35,neg,same,male,1,495
13,1,5,36,neg,diff,male,1,629
13,1,5,37,neg,same,male,1,501
13,1,5,38,pos,diff,male,1,587
13,1,5,39,neu,diff,male,1,700
13,1,5,40,neg,diff,male,1,730
13,1,5,41,neu,same,male,1,614
13,1,5,42,neu,diff,male,1,631
13,1,5,43,neg,diff,male,1,583
13,1,5,44,pos,diff,male,1,793
13,1,5,45,pos,diff,male,1,771
13,1,5,46,neg,diff,male,1,702
13,1,5,47,neu,diff,male,1,667
13,1,5,48,neu,diff,male,1,889
13,1,5,49,neg,diff,male,1,671
13,1,5,50,neu,same,male,1,750
13,1,5,51,neu,diff,male,1,1049
13,1,5,52,pos,diff,male,1,664
13,1,5,53,neu,same,male,1,583
13,1,5,54,pos,same,male,1,521
13,1,5,55,neu,same,male,1,990
13,1,6,1,neg,same,female,0,NA
13,1,6,2,neg,same,female,0,NA
13,1,6,3,neg,same,female,1,756
13,1,6,4,neg,same,female,1,512
13,1,6,5,neg,same,female,1,533
13,1,6,6,neu,diff,female,1,585
13,1,6,7,neg,same,female,1,603
13,1,6,8,neg,diff,female,1,844
13,1,6,9,neu,diff,female,0,612
13,1,6,10,pos,diff,female,1,485
13,1,6,11,pos,diff,female,1,1115
13,1,6,12,neg,diff,female,1,536
13,1,6,13,pos,same,female,1,475
13,1,6,14,neu,diff,female,1,706
13,1,6,15,pos,same,female,1,383
13,1,6,16,neu,same,female,1,729
13,1,6,17,neu,diff,female,1,854
13,1,6,18,neu,same,female,1,701
13,1,6,19,neu,same,female,1,458
13,1,6,20,neg,diff,female,1,626
13,1,6,21,neg,diff,female,1,722
13,1,6,22,pos,diff,female,1,783
13,1,6,23,neg,same,female,1,777
13,1,6,24,neg,diff,female,1,595
13,1,6,25,neg,same,female,1,565
13,1,6,26,neg,same,female,1,552
13,1,6,27,neg,same,female,1,635
13,1,6,28,neg,same,female,1,475
13,1,6,29,pos,diff,female,1,657
13,1,6,30,neu,diff,female,1,961
13,1,6,31,pos,same,female,1,387
13,1,6,32,pos,diff,female,1,877
13,1,6,33,pos,same,female,1,627
13,1,6,34,pos,same,female,1,564
13,1,6,35,neu,diff,female,1,711
13,1,6,36,neu,diff,female,1,532
13,1,6,37,neg,diff,female,1,600
13,1,6,38,neu,same,female,1,570
13,1,6,39,neg,same,female,1,940
13,1,6,40,neu,same,female,1,544
13,1,6,41,neg,same,female,1,484
13,1,6,42,pos,diff,female,1,602
13,1,6,43,pos,diff,female,1,603
13,1,6,44,pos,same,female,1,412
13,1,6,45,neg,diff,female,1,502
13,1,6,46,neu,diff,female,1,747
13,1,6,47,neg,same,female,1,471
13,1,6,48,neu,same,female,1,573
13,1,6,49,neu,diff,female,1,944
13,1,6,50,pos,diff,female,1,564
13,1,6,51,neu,same,female,1,487
13,1,6,52,neu,diff,female,1,781
13,1,6,53,neu,same,female,1,584
13,1,6,54,neu,same,female,1,474
13,1,6,55,neu,same,female,1,704
14,1,1,1,neu,same,male,0,NA
14,1,1,2,pos,same,male,0,NA
14,1,1,3,neu,same,male,1,1131
14,1,1,4,pos,same,male,0,679
14,1,1,5,neu,same,male,1,1318
14,1,1,6,neu,diff,male,0,NA
14,1,1,7,pos,diff,male,0,NA
14,1,1,8,pos,diff,male,1,1383
14,1,1,9,pos,same,male,1,1385
14,1,1,10,pos,same,male,0,1162
14,1,1,11,pos,same,male,1,1028
14,1,1,12,pos,same,male,1,1125
14,1,1,13,neu,diff,male,0,1281
14,1,1,14,neg,diff,male,1,1063
14,1,1,15,neu,same,male,0,NA
14,1,1,16,neu,diff,male,1,1444
14,1,1,17,neg,diff,male,0,963
14,1,1,18,neg,diff,male,0,NA
14,1,1,19,pos,diff,male,1,1288
14,1,1,20,neg,same,male,0,NA
14,1,1,21,neu,diff,male,1,1431
14,1,1,22,neg,same,male,1,1415
14,1,1,23,neg,diff,male,0,NA
14,1,1,24,neg,same,male,0,NA
14,1,1,25,neg,same,male,0,NA
14,1,1,26,pos,diff,male,0,NA
14,1,1,27,neu,diff,male,0,NA
14,1,1,28,neu,diff,male,0,NA
14,1,1,29,neu,same,male,0,NA
14,1,1,30,neu,same,male,0,NA
14,1,1,31,neg,diff,male,0,NA
14,1,1,32,neu,same,male,0,NA
14,1,1,33,pos,diff,male,0,NA
14,1,1,34,neu,same,male,0,NA
14,1,1,35,pos,same,male,1,889
14,1,1,36,neu,same,male,0,NA
14,1,1,37,neu,diff,male,0,NA
14,1,1,38,neg,diff,male,1,1184
14,1,1,39,neu,same,male,0,NA
14,1,1,40,neu,diff,male,0,NA
14,1,1,41,pos,diff,male,1,716
14,1,1,42,neu,same,male,0,NA
14,1,1,43,pos,same,male,0,NA
14,1,1,44,neu,same,male,1,843
14,1,1,45,pos,same,male,0,NA
14,1,1,46,neg,diff,male,0,NA
14,1,1,47,neg,diff,male,1,1366
14,1,1,48,neg,same,male,0,NA
14,1,1,49,pos,diff,male,0,NA
14,1,1,50,neg,same,male,1,731
14,1,1,51,pos,same,male,0,NA
14,1,1,52,neg,same,male,0,NA
14,1,1,53,pos,same,male,1,762
14,1,1,54,pos,diff,male,0,NA
14,1,1,55,pos,same,male,0,NA
14,1,2,1,pos,same,female,0,NA
14,1,2,2,pos,same,female,0,NA
14,1,2,3,pos,same,female,1,880
14,1,2,4,pos,same,female,0,NA
14,1,2,5,neg,diff,female,0,NA
14,1,2,6,pos,same,female,0,953
14,1,2,7,pos,diff,female,0,NA
14,1,2,8,pos,same,female,0,NA
14,1,2,9,neu,diff,female,1,959
14,1,2,10,pos,same,female,0,NA
14,1,2,11,neu,same,female,0,NA
14,1,2,12,neg,diff,female,1,517
14,1,2,13,neu,same,female,0,NA
14,1,2,14,neg,same,female,0,NA
14,1,2,15,pos,diff,female,1,780
14,1,2,16,pos,diff,female,0,NA
14,1,2,17,pos,same,female,0,NA
14,1,2,18,neu,diff,female,1,713
14,1,2,19,pos,same,female,0,NA
14,1,2,20,pos,diff,female,0,NA
14,1,2,21,neg,diff,female,1,905
14,1,2,22,neu,diff,female,0,NA
14,1,2,23,neu,diff,female,0,NA
14,1,2,24,pos,diff,female,1,1072
14,1,2,25,pos,diff,female,0,NA
14,1,2,26,neu,diff,female,0,NA
14,1,2,27,pos,same,female,1,497
14,1,2,28,pos,diff,female,0,NA
14,1,2,29,neu,diff,female,0,NA
14,1,2,30,neg,diff,female,1,713
14,1,2,31,neu,same,female,0,NA
14,1,2,32,neg,same,female,0,NA
14,1,2,33,neu,same,female,1,1113
14,1,2,34,pos,diff,female,0,NA
14,1,2,35,neu,same,female,0,NA
14,1,2,36,pos,same,female,0,888
14,1,2,37,neu,same,female,0,NA
14,1,2,38,pos,same,female,0,NA
14,1,2,39,neu,same,female,1,881
14,1,2,40,neu,diff,female,0,NA
14,1,2,41,pos,diff,female,0,NA
14,1,2,42,neg,diff,female,1,810
14,1,2,43,neu,diff,female,0,NA
14,1,2,44,pos,diff,female,0,NA
14,1,2,45,pos,diff,female,1,1302
14,1,2,46,pos,same,female,0,NA
14,1,2,47,pos,same,female,0,NA
14,1,2,48,pos,same,female,1,733
14,1,2,49,neg,diff,female,0,NA
14,1,2,50,pos,same,female,0,NA
14,1,2,51,neg,same,female,1,794
14,1,2,52,pos,same,female,0,NA
14,1,2,53,pos,diff,female,0,NA
14,1,2,54,pos,same,female,1,871
14,1,2,55,pos,same,female,0,NA
14,1,3,1,neg,same,female,0,NA
14,1,3,2,neu,same,female,0,NA
14,1,3,3,pos,diff,female,1,1218
14,1,3,4,pos,diff,female,0,NA
14,1,3,5,neu,diff,female,0,NA
14,1,3,6,pos,same,female,1,653
14,1,3,7,pos,diff,female,0,NA
14,1,3,8,neg,diff,female,0,NA
14,1,3,9,neu,diff,female,1,703
14,1,3,10,neg,same,female,0,NA
14,1,3,11,neu,same,female,1,1061
14,1,3,12,pos,diff,female,0,NA
14,1,3,13,neu,same,female,1,1006
14,1,3,14,pos,same,female,0,NA
14,1,3,15,pos,diff,female,0,NA
14,1,3,16,neg,diff,female,0,NA
14,1,3,17,pos,same,female,0,NA
14,1,3,18,pos,diff,female,0,NA
14,1,3,19,pos,same,female,1,1374
14,1,3,20,pos,same,female,0,NA
14,1,3,21,pos,same,female,1,1032
14,1,3,22,pos,same,female,0,NA
14,1,3,23,neg,diff,female,1,865
14,1,3,24,neu,diff,female,0,NA
14,1,3,25,neu,diff,female,1,769
14,1,3,26,pos,diff,female,0,908
14,1,3,27,pos,diff,female,1,1025
14,1,3,28,neu,diff,female,0,993
14,1,3,29,pos,same,female,0,1235
14,1,3,30,neu,same,female,1,907
14,1,3,31,pos,same,female,1,1072
14,1,3,32,neg,diff,female,0,NA
14,1,3,33,neg,diff,female,0,887
14,1,3,34,neu,diff,female,1,1165
14,1,3,35,pos,diff,female,0,1015
14,1,3,36,pos,diff,female,0,NA
14,1,3,37,neu,diff,female,1,1297
14,1,3,38,pos,same,female,0,NA
14,1,3,39,neg,diff,female,0,NA
14,1,3,40,pos,same,female,1,969
14,1,3,41,pos,diff,female,1,908
14,1,3,42,neg,diff,female,0,NA
14,1,3,43,neu,diff,female,0,NA
14,1,3,44,neg,same,female,0,NA
14,1,3,45,neg,diff,female,1,1108
14,1,3,46,neg,same,female,0,NA
14,1,3,47,neg,same,female,0,NA
14,1,3,48,neg,same,female,1,1027
14,1,3,49,pos,diff,female,0,NA
14,1,3,50,neg,same,female,1,892
14,1,3,51,neg,diff,female,1,866
14,1,3,52,neg,same,female,0,1273
14,1,3,53,pos,diff,female,0,NA
14,1,3,54,neg,same,female,0,NA
14,1,3,55,neu,diff,female,1,977
14,1,4,1,pos,diff,female,0,NA
14,1,4,2,neu,diff,female,0,NA
14,1,4,3,neg,diff,female,1,569
14,1,4,4,neu,same,female,1,1148
14,1,4,5,neu,diff,female,1,1144
14,1,4,6,neg,diff,female,1,1283
14,1,4,7,neu,same,female,0,NA
14,1,4,8,neg,same,female,0,NA
14,1,4,9,neu,same,female,1,1037
14,1,4,10,neg,same,female,1,940
14,1,4,11,neu,same,female,1,815
14,1,4,12,neu,diff,female,0,1464
14,1,4,13,neu,same,female,0,NA
14,1,4,14,pos,diff,female,1,1353
14,1,4,15,neg,diff,female,0,1164
14,1,4,16,neu,diff,female,1,583
14,1,4,17,neu,diff,female,1,1065
14,1,4,18,pos,diff,female,1,1287
14,1,4,19,neg,diff,female,1,1373
14,1,4,20,neg,diff,female,0,1327
14,1,4,21,pos,diff,female,0,NA
14,1,4,22,neu,diff,female,0,NA
14,1,4,23,neu,diff,female,1,687
14,1,4,24,neg,diff,female,0,1069
14,1,4,25,pos,diff,female,1,619
14,1,4,26,neu,diff,female,0,635
14,1,4,27,neg,diff,female,1,587
14,1,4,28,neu,same,female,1,909
14,1,4,29,neu,diff,female,1,754
14,1,4,30,neg,diff,female,1,1070
14,1,4,31,neg,diff,female,0,NA
14,1,4,32,neg,same,female,1,834
14,1,4,33,pos,diff,female,1,762
14,1,4,34,neu,diff,female,1,565
14,1,4,35,neu,diff,female,1,520
14,1,4,36,neg,diff,female,0,813
14,1,4,37,neu,same,female,1,678
14,1,4,38,neg,same,female,1,820
14,1,4,39,neu,same,female,1,797
14,1,4,40,pos,diff,female,1,887
14,1,4,41,neg,diff,female,1,1419
14,1,4,42,neu,diff,female,1,556
14,1,4,43,neg,same,female,1,943
14,1,4,44,pos,diff,female,1,1027
14,1,4,45,pos,diff,female,0,963
14,1,4,46,pos,same,female,0,1094
14,1,4,47,pos,same,female,1,1076
14,1,4,48,neu,diff,female,1,642
14,1,4,49,pos,same,female,0,NA
14,1,4,50,pos,diff,female,0,NA
14,1,4,51,pos,same,female,1,1047
14,1,4,52,pos,same,female,0,NA
14,1,4,53,pos,same,female,0,NA
14,1,4,54,neg,diff,female,1,1017
14,1,4,55,pos,same,female,0,NA
14,1,5,1,neg,same,male,0,NA
14,1,5,2,neg,same,male,0,NA
14,1,5,3,neg,same,male,1,896
14,1,5,4,neg,same,male,1,1350
14,1,5,5,neu,diff,male,1,681
14,1,5,6,neg,same,male,1,487
14,1,5,7,neg,diff,male,1,701
14,1,5,8,neg,same,male,1,699
14,1,5,9,neg,same,male,1,568
14,1,5,10,neu,diff,male,1,1194
14,1,5,11,neg,same,male,1,964
14,1,5,12,pos,diff,male,1,1239
14,1,5,13,neg,same,male,1,590
14,1,5,14,neu,diff,male,1,608
14,1,5,15,pos,diff,male,1,913
14,1,5,16,neu,same,male,0,1158
14,1,5,17,neg,diff,male,1,1233
14,1,5,18,neg,diff,male,0,1113
14,1,5,19,pos,diff,male,1,534
14,1,5,20,neg,same,male,0,NA
14,1,5,21,neg,diff,male,0,NA
14,1,5,22,neu,diff,male,0,1263
14,1,5,23,neu,diff,male,1,982
14,1,5,24,neg,diff,male,0,NA
14,1,5,25,neg,diff,male,0,NA
14,1,5,26,pos,diff,male,1,714
14,1,5,27,neu,diff,male,1,1271
14,1,5,28,pos,same,male,0,NA
14,1,5,29,neg,diff,male,0,NA
14,1,5,30,pos,same,male,0,739
14,1,5,31,neg,same,male,0,879
14,1,5,32,neg,diff,male,0,1253
14,1,5,33,pos,diff,male,0,NA
14,1,5,34,neu,diff,male,1,1157
14,1,5,35,neg,diff,male,0,NA
14,1,5,36,neu,same,male,0,NA
14,1,5,37,neg,same,male,1,819
14,1,5,38,pos,diff,male,1,731
14,1,5,39,neg,same,male,1,584
14,1,5,40,pos,same,male,1,730
14,1,5,41,neg,same,male,1,917
14,1,5,42,neg,diff,male,1,1002
14,1,5,43,pos,diff,male,0,NA
14,1,5,44,neg,same,male,0,1068
14,1,5,45,neg,diff,male,0,1082
14,1,5,46,neg,same,male,1,1176
14,1,5,47,neg,same,male,1,1090
14,1,5,48,pos,diff,male,1,1232
14,1,5,49,neu,diff,male,1,744
14,1,5,50,neg,diff,male,1,1012
14,1,5,51,neu,same,male,1,821
14,1,5,52,neg,same,male,0,1405
14,1,5,53,neu,same,male,1,670
14,1,5,54,pos,diff,male,0,NA
14,1,5,55,neg,diff,male,0,1420
14,1,6,1,neu,diff,male,0,NA
14,1,6,2,neu,diff,male,0,NA
14,1,6,3,pos,diff,male,1,530
14,1,6,4,neu,same,male,1,855
14,1,6,5,pos,same,male,0,478
14,1,6,6,pos,diff,male,1,788
14,1,6,7,neu,diff,male,1,606
14,1,6,8,pos,same,male,0,543
14,1,6,9,pos,diff,male,1,1123
14,1,6,10,pos,same,male,0,608
14,1,6,11,pos,same,male,1,528
14,1,6,12,pos,same,male,0,1205
14,1,6,13,pos,same,male,0,NA
14,1,6,14,neg,diff,male,1,519
14,1,6,15,pos,same,male,1,603
14,1,6,16,neg,same,male,1,893
14,1,6,17,pos,same,male,1,771
14,1,6,18,pos,diff,male,1,1053
14,1,6,19,neg,diff,male,1,1132
14,1,6,20,pos,same,male,1,712
14,1,6,21,neg,same,male,1,1205
14,1,6,22,neu,diff,male,0,NA
14,1,6,23,neg,same,male,1,823
14,1,6,24,neu,same,male,0,800
14,1,6,25,neg,same,male,0,NA
14,1,6,26,neu,same,male,0,NA
14,1,6,27,pos,diff,male,1,607
14,1,6,28,neg,diff,male,0,944
14,1,6,29,neg,diff,male,1,452
14,1,6,30,pos,diff,male,0,603
14,1,6,31,neg,same,male,1,1196
14,1,6,32,neu,diff,male,0,902
14,1,6,33,pos,diff,male,1,427
14,1,6,34,pos,diff,male,0,1028
14,1,6,35,pos,same,male,0,404
14,1,6,36,pos,same,male,1,477
14,1,6,37,pos,same,male,0,900
14,1,6,38,neu,diff,male,1,697
14,1,6,39,neg,diff,male,0,NA
14,1,6,40,neu,same,male,1,800
14,1,6,41,pos,diff,male,0,NA
14,1,6,42,neu,same,male,1,898
14,1,6,43,neg,diff,male,1,711
14,1,6,44,neu,same,male,0,980
14,1,6,45,pos,diff,male,0,519
14,1,6,46,neg,diff,male,1,571
14,1,6,47,pos,same,male,0,NA
14,1,6,48,neu,diff,male,1,999
14,1,6,49,pos,same,male,1,952
14,1,6,50,neu,same,male,0,507
14,1,6,51,pos,same,male,0,784
14,1,6,52,neu,same,male,1,410
14,1,6,53,neu,diff,male,1,1252
14,1,6,54,pos,diff,male,0,NA
14,1,6,55,pos,diff,male,1,612
15,1,1,1,neg,same,female,0,NA
15,1,1,2,pos,same,female,0,NA
15,1,1,3,neu,diff,female,1,653
15,1,1,4,pos,same,female,1,809
15,1,1,5,neu,same,female,1,642
15,1,1,6,pos,same,female,1,699
15,1,1,7,pos,diff,female,0,511
15,1,1,8,pos,same,female,1,526
15,1,1,9,pos,same,female,1,543
15,1,1,10,pos,same,female,1,499
15,1,1,11,neg,diff,female,1,558
15,1,1,12,pos,same,female,1,408
15,1,1,13,neg,same,female,0,497
15,1,1,14,neg,diff,female,1,908
15,1,1,15,neu,diff,female,1,683
15,1,1,16,neu,diff,female,1,908
15,1,1,17,neu,same,female,0,1131
15,1,1,18,neu,same,female,1,1044
15,1,1,19,pos,diff,female,0,717
15,1,1,20,neu,same,female,1,723
15,1,1,21,neu,diff,female,0,508
15,1,1,22,neu,same,female,1,539
15,1,1,23,neu,same,female,1,447
15,1,1,24,pos,diff,female,1,848
15,1,1,25,neu,same,female,1,529
15,1,1,26,pos,same,female,1,450
15,1,1,27,neg,diff,female,1,659
15,1,1,28,neu,diff,female,1,1071
15,1,1,29,neu,diff,female,1,1182
15,1,1,30,neg,diff,female,1,850
15,1,1,31,neu,same,female,1,755
15,1,1,32,neg,same,female,0,786
15,1,1,33,neg,diff,female,1,584
15,1,1,34,neg,same,female,1,647
15,1,1,35,neu,diff,female,1,624
15,1,1,36,pos,diff,female,1,660
15,1,1,37,neu,same,female,1,768
15,1,1,38,neu,diff,female,0,1201
15,1,1,39,pos,diff,female,0,779
15,1,1,40,neg,diff,female,1,558
15,1,1,41,pos,same,female,1,536
15,1,1,42,pos,diff,female,0,507
15,1,1,43,neg,diff,female,1,650
15,1,1,44,pos,same,female,1,531
15,1,1,45,pos,diff,female,0,724
15,1,1,46,pos,same,female,0,733
15,1,1,47,neg,diff,female,1,617
15,1,1,48,pos,same,female,1,669
15,1,1,49,neu,diff,female,1,620
15,1,1,50,neg,diff,female,1,512
15,1,1,51,neu,same,female,1,942
15,1,1,52,neg,same,female,1,658
15,1,1,53,pos,diff,female,1,542
15,1,1,54,neg,same,female,1,450
15,1,1,55,pos,same,female,1,467
15,1,2,1,neg,same,female,0,NA
15,1,2,2,neu,same,female,0,NA
15,1,2,3,neg,same,female,1,443
15,1,2,4,neg,diff,female,1,700
15,1,2,5,neg,same,female,1,479
15,1,2,6,neg,same,female,1,457
15,1,2,7,neu,diff,female,1,492
15,1,2,8,pos,diff,female,1,632
15,1,2,9,neg,diff,female,1,879
15,1,2,10,neu,diff,female,1,552
15,1,2,11,neg,same,female,1,591
15,1,2,12,pos,diff,female,1,477
15,1,2,13,neg,same,female,1,546
15,1,2,14,pos,same,female,1,857
15,1,2,15,pos,diff,female,1,1469
15,1,2,16,pos,same,female,1,428
15,1,2,17,pos,same,female,1,394
15,1,2,18,pos,same,female,1,401
15,1,2,19,pos,same,female,1,362
15,1,2,20,neu,diff,female,1,427
15,1,2,21,neg,diff,female,1,409
15,1,2,22,neu,same,female,0,738
15,1,2,23,neg,same,female,1,510
15,1,2,24,neg,diff,female,1,717
15,1,2,25,neu,diff,female,1,963
15,1,2,26,neu,diff,female,1,749
15,1,2,27,neu,same,female,1,411
15,1,2,28,neu,same,female,1,388
15,1,2,29,neu,same,female,1,411
15,1,2,30,neu,same,female,1,340
15,1,2,31,pos,diff,female,1,592
15,1,2,32,neu,same,female,1,462
15,1,2,33,neg,diff,female,1,466
15,1,2,34,neg,diff,female,1,1336
15,1,2,35,neg,same,female,1,764
15,1,2,36,neg,same,female,1,382
15,1,2,37,neg,same,female,1,433
15,1,2,38,neg,same,female,1,384
15,1,2,39,neg,same,female,1,436
15,1,2,40,neu,diff,female,1,562
15,1,2,41,pos,diff,female,1,523
15,1,2,42,neu,same,female,1,1084
15,1,2,43,neg,diff,female,1,590
15,1,2,44,neg,diff,female,1,556
15,1,2,45,neg,same,female,1,515
15,1,2,46,pos,diff,female,1,385
15,1,2,47,neu,diff,female,1,552
15,1,2,48,neg,diff,female,1,558
15,1,2,49,neg,diff,female,1,901
15,1,2,50,neg,same,female,1,481
15,1,2,51,neg,same,female,1,330
15,1,2,52,pos,diff,female,1,387
15,1,2,53,neg,same,female,1,505
15,1,2,54,pos,same,female,0,696
15,1,2,55,pos,diff,female,0,619
15,1,3,1,neu,diff,female,0,NA
15,1,3,2,neu,diff,female,0,NA
15,1,3,3,neu,same,female,1,451
15,1,3,4,neu,same,female,1,452
15,1,3,5,pos,diff,female,1,408
15,1,3,6,neu,same,female,1,624
15,1,3,7,pos,same,female,1,311
15,1,3,8,neu,same,female,1,429
15,1,3,9,pos,same,female,1,379
15,1,3,10,neu,same,female,1,399
15,1,3,11,pos,same,female,1,360
15,1,3,12,pos,diff,female,0,441
15,1,3,13,neu,diff,female,1,507
15,1,3,14,pos,same,female,1,313
15,1,3,15,neu,same,female,0,1247
15,1,3,16,neu,diff,female,0,465
15,1,3,17,neu,same,female,1,343
15,1,3,18,neu,same,female,1,371
15,1,3,19,neu,same,female,1,439
15,1,3,20,neg,diff,female,1,600
15,1,3,21,pos,diff,female,1,521
15,1,3,22,neu,diff,female,1,858
15,1,3,23,pos,same,female,1,414
15,1,3,24,neg,diff,female,1,506
15,1,3,25,neg,diff,female,1,472
15,1,3,26,pos,diff,female,1,639
15,1,3,27,neu,diff,female,1,728
15,1,3,28,neg,diff,female,1,593
15,1,3,29,neu,same,female,0,528
15,1,3,30,pos,diff,female,1,737
15,1,3,31,pos,diff,female,1,1261
15,1,3,32,neg,diff,female,1,465
15,1,3,33,neu,diff,female,1,519
15,1,3,34,neu,diff,female,1,1145
15,1,3,35,neu,same,female,1,631
15,1,3,36,pos,diff,female,1,462
15,1,3,37,neu,same,female,1,530
15,1,3,38,neu,diff,female,1,515
15,1,3,39,neu,same,female,1,465
15,1,3,40,neg,diff,female,1,600
15,1,3,41,neg,diff,female,1,921
15,1,3,42,neg,same,female,1,746
15,1,3,43,neu,diff,female,1,617
15,1,3,44,pos,diff,female,1,828
15,1,3,45,neu,same,female,1,555
15,1,3,46,neg,diff,female,1,498
15,1,3,47,neu,same,female,1,957
15,1,3,48,neu,diff,female,1,1095
15,1,3,49,pos,diff,female,1,651
15,1,3,50,neg,diff,female,1,772
15,1,3,51,neg,diff,female,1,424
15,1,3,52,neg,same,female,1,756
15,1,3,53,neg,same,female,1,402
15,1,3,54,neg,same,female,1,747
15,1,3,55,neg,same,female,1,442
15,1,4,1,neg,same,male,0,NA
15,1,4,2,neg,same,male,0,NA
15,1,4,3,neu,diff,male,1,624
15,1,4,4,neg,same,male,1,455
15,1,4,5,pos,diff,male,1,699
15,1,4,6,neu,diff,male,1,927
15,1,4,7,pos,same,male,1,416
15,1,4,8,neg,diff,male,1,492
15,1,4,9,pos,same,male,1,535
15,1,4,10,neg,same,male,1,347
15,1,4,11,pos,same,male,1,506
15,1,4,12,neg,same,male,1,1000
15,1,4,13,neu,diff,male,1,569
15,1,4,14,neg,same,male,1,755
15,1,4,15,neg,diff,male,1,529
15,1,4,16,pos,diff,male,1,530
15,1,4,17,neg,same,male,1,419
15,1,4,18,neg,diff,male,1,431
15,1,4,19,pos,diff,male,1,622
15,1,4,20,neg,same,male,1,690
15,1,4,21,neu,diff,male,1,467
15,1,4,22,neu,diff,male,1,985
15,1,4,23,neg,diff,male,1,456
15,1,4,24,neu,same,male,1,876
15,1,4,25,neg,same,male,1,370
15,1,4,26,neu,same,male,1,595
15,1,4,27,neu,diff,male,1,450
15,1,4,28,neg,diff,male,1,675
15,1,4,29,pos,diff,male,1,770
15,1,4,30,neu,diff,male,1,499
15,1,4,31,pos,same,male,1,1023
15,1,4,32,neu,same,male,1,467
15,1,4,33,pos,same,male,1,377
15,1,4,34,neu,same,male,1,477
15,1,4,35,pos,same,male,1,819
15,1,4,36,neg,diff,male,1,447
15,1,4,37,neg,diff,male,1,480
15,1,4,38,pos,diff,male,1,729
15,1,4,39,pos,diff,male,1,483
15,1,4,40,pos,same,male,1,460
15,1,4,41,neu,diff,male,1,368
15,1,4,42,neu,diff,male,1,481
15,1,4,43,neu,same,male,0,522
15,1,4,44,pos,diff,male,0,411
15,1,4,45,neg,diff,male,1,1044
15,1,4,46,neu,diff,male,1,989
15,1,4,47,neg,same,male,1,812
15,1,4,48,neu,same,male,1,392
15,1,4,49,neu,diff,male,1,462
15,1,4,50,neg,diff,male,1,546
15,1,4,51,neg,diff,male,1,1016
15,1,4,52,neu,diff,male,1,445
15,1,4,53,neg,same,male,1,829
15,1,4,54,neu,same,male,1,427
15,1,4,55,neg,same,male,1,842
15,1,5,1,neu,same,male,0,NA
15,1,5,2,neg,same,male,0,NA
15,1,5,3,neu,same,male,1,396
15,1,5,4,neu,diff,male,1,707
15,1,5,5,neu,same,male,1,553
15,1,5,6,neu,same,male,1,752
15,1,5,7,neu,same,male,1,542
15,1,5,8,pos,diff,male,1,514
15,1,5,9,neu,same,male,1,417
15,1,5,10,pos,same,male,1,428
15,1,5,11,pos,diff,male,1,955
15,1,5,12,pos,same,male,1,385
15,1,5,13,neg,diff,male,1,408
15,1,5,14,neu,diff,male,1,721
15,1,5,15,pos,diff,male,1,554
15,1,5,16,neu,same,male,1,577
15,1,5,17,neg,diff,male,1,412
15,1,5,18,pos,diff,male,1,568
15,1,5,19,pos,diff,male,0,529
15,1,5,20,pos,same,male,1,579
15,1,5,21,neu,diff,male,1,430
15,1,5,22,pos,same,male,1,813
15,1,5,23,neu,same,male,1,761
15,1,5,24,neu,diff,male,1,874
15,1,5,25,neg,diff,male,1,465
15,1,5,26,neg,diff,male,1,519
15,1,5,27,neu,diff,male,1,440
15,1,5,28,neg,same,male,1,729
15,1,5,29,neu,same,male,1,435
15,1,5,30,neg,same,male,1,737
15,1,5,31,neg,diff,male,1,557
15,1,5,32,pos,diff,male,1,499
15,1,5,33,neg,same,male,1,415
15,1,5,34,pos,same,male,1,891
15,1,5,35,pos,diff,male,1,452
15,1,5,36,pos,same,male,1,472
15,1,5,37,pos,same,male,1,334
15,1,5,38,neu,diff,male,1,538
15,1,5,39,neu,diff,male,0,510
15,1,5,40,neg,diff,male,1,540
15,1,5,41,neu,same,male,1,800
15,1,5,42,neu,diff,male,1,1210
15,1,5,43,neu,same,male,1,675
15,1,5,44,neg,diff,male,1,385
15,1,5,45,neu,same,male,1,568
15,1,5,46,neg,same,male,1,401
15,1,5,47,neu,same,male,1,425
15,1,5,48,neg,same,male,1,584
15,1,5,49,neu,same,male,1,627
15,1,5,50,neg,same,male,1,362
15,1,5,51,neg,diff,male,1,731
15,1,5,52,pos,diff,male,1,519
15,1,5,53,neg,same,male,1,824
15,1,5,54,pos,same,male,1,487
15,1,5,55,neg,same,male,1,432
15,1,6,1,pos,same,male,0,NA
15,1,6,2,pos,same,male,0,NA
15,1,6,3,pos,same,male,1,418
15,1,6,4,pos,same,male,1,430
15,1,6,5,pos,same,male,1,428
15,1,6,6,neg,diff,male,1,395
15,1,6,7,neu,diff,male,1,545
15,1,6,8,neg,same,male,1,488
15,1,6,9,neu,same,male,1,417
15,1,6,10,neg,same,male,1,701
15,1,6,11,neu,same,male,1,784
15,1,6,12,pos,diff,male,1,519
15,1,6,13,neu,same,male,1,392
15,1,6,14,pos,same,male,1,527
15,1,6,15,neg,diff,male,1,688
15,1,6,16,pos,same,male,1,321
15,1,6,17,pos,diff,male,1,842
15,1,6,18,neu,diff,male,1,507
15,1,6,19,pos,same,male,1,538
15,1,6,20,pos,diff,male,0,638
15,1,6,21,neg,diff,male,1,471
15,1,6,22,neu,diff,male,1,701
15,1,6,23,neg,same,male,1,417
15,1,6,24,neu,same,male,1,621
15,1,6,25,pos,diff,male,1,433
15,1,6,26,neu,same,male,1,527
15,1,6,27,pos,same,male,1,400
15,1,6,28,neg,diff,male,1,425
15,1,6,29,pos,same,male,1,488
15,1,6,30,neg,same,male,1,481
15,1,6,31,pos,same,male,1,394
15,1,6,32,pos,diff,male,1,481
15,1,6,33,pos,same,male,1,410
15,1,6,34,pos,same,male,1,467
15,1,6,35,neg,diff,male,1,585
15,1,6,36,pos,same,male,1,376
15,1,6,37,neg,same,male,1,748
15,1,6,38,neu,diff,male,1,874
15,1,6,39,pos,diff,male,1,449
15,1,6,40,neu,same,male,1,354
15,1,6,41,neu,diff,male,1,400
15,1,6,42,neg,diff,male,1,569
15,1,6,43,neu,same,male,1,883
15,1,6,44,neu,diff,male,1,459
15,1,6,45,neg,diff,male,1,687
15,1,6,46,pos,diff,male,0,464
15,1,6,47,neg,same,male,1,772
15,1,6,48,neu,diff,male,0,487
15,1,6,49,neg,same,male,1,1217
15,1,6,50,neu,same,male,1,893
15,1,6,51,neg,same,male,1,1433
15,1,6,52,neg,diff,male,0,NA
15,1,6,53,neu,diff,male,0,787
15,1,6,54,pos,diff,male,0,841
15,1,6,55,pos,diff,male,1,891
16,1,1,1,pos,same,female,0,NA
16,1,1,2,neg,same,female,0,NA
16,1,1,3,neu,diff,female,1,873
16,1,1,4,neu,diff,female,0,NA
16,1,1,5,neu,same,female,0,NA
16,1,1,6,pos,diff,female,0,NA
16,1,1,7,neu,same,female,1,1501
16,1,1,8,neu,diff,female,1,1402
16,1,1,9,neg,diff,female,0,NA
16,1,1,10,neu,same,female,0,NA
16,1,1,11,neu,diff,female,0,NA
16,1,1,12,neu,same,female,0,NA
16,1,1,13,neg,diff,female,0,NA
16,1,1,14,neu,same,female,0,NA
16,1,1,15,neg,same,female,1,1322
16,1,1,16,neg,diff,female,1,812
16,1,1,17,pos,diff,female,1,952
16,1,1,18,neu,diff,female,1,1246
16,1,1,19,neg,diff,female,1,912
16,1,1,20,neu,same,female,1,879
16,1,1,21,pos,diff,female,1,952
16,1,1,22,pos,diff,female,1,1470
16,1,1,23,pos,same,female,1,1421
16,1,1,24,pos,same,female,0,1329
16,1,1,25,pos,same,female,1,1123
16,1,1,26,pos,same,female,1,828
16,1,1,27,neu,diff,female,1,1099
16,1,1,28,neu,diff,female,1,1119
16,1,1,29,pos,diff,female,0,NA
16,1,1,30,pos,diff,female,0,NA
16,1,1,31,pos,same,female,1,1145
16,1,1,32,pos,same,female,0,NA
16,1,1,33,neu,diff,female,1,1167
16,1,1,34,neg,diff,female,1,913
16,1,1,35,neg,diff,female,1,1407
16,1,1,36,pos,diff,female,0,881
16,1,1,37,neu,diff,female,1,938
16,1,1,38,pos,same,female,1,734
16,1,1,39,neu,same,female,1,1034
16,1,1,40,pos,same,female,1,673
16,1,1,41,neu,same,female,1,655
16,1,1,42,pos,same,female,1,731
16,1,1,43,neg,diff,female,1,660
16,1,1,44,pos,same,female,1,832
16,1,1,45,neu,diff,female,1,959
16,1,1,46,pos,same,female,1,792
16,1,1,47,neg,diff,female,1,943
16,1,1,48,neu,diff,female,1,818
16,1,1,49,neg,same,female,1,1166
16,1,1,50,neu,same,female,1,848
16,1,1,51,neg,same,female,1,1073
16,1,1,52,pos,diff,female,1,1343
16,1,1,53,neg,same,female,1,899
16,1,1,54,neg,diff,female,1,1103
16,1,1,55,neu,diff,female,1,883
16,1,2,1,neu,diff,female,1,1473
16,1,2,2,neg,diff,female,0,NA
16,1,2,3,neu,same,female,0,NA
16,1,2,4,neg,same,female,1,930
16,1,2,5,neu,same,female,1,883
16,1,2,6,neu,diff,female,1,908
16,1,2,7,neu,same,female,1,907
16,1,2,8,neu,same,female,1,1322
16,1,2,9,neu,same,female,1,683
16,1,2,10,neg,diff,female,1,956
16,1,2,11,neu,same,female,1,1011
16,1,2,12,neg,same,female,0,NA
16,1,2,13,pos,diff,female,0,NA
16,1,2,14,neg,same,female,0,NA
16,1,2,15,neu,diff,female,1,1386
16,1,2,16,neu,diff,female,1,969
16,1,2,17,pos,diff,female,1,994
16,1,2,18,pos,diff,female,1,1169
16,1,2,19,pos,same,female,1,770
16,1,2,20,neu,diff,female,1,1075
16,1,2,21,pos,same,female,1,562
16,1,2,22,neu,same,female,1,1227
16,1,2,23,pos,same,female,1,970
16,1,2,24,neu,same,female,0,NA
16,1,2,25,pos,same,female,1,1385
16,1,2,26,neu,same,female,0,NA
16,1,2,27,pos,same,female,1,1135
16,1,2,28,neu,same,female,1,971
16,1,2,29,neu,diff,female,1,1316
16,1,2,30,neu,same,female,0,NA
16,1,2,31,neu,same,female,0,NA
16,1,2,32,pos,diff,female,0,NA
16,1,2,33,neu,same,female,1,632
16,1,2,34,pos,same,female,1,591
16,1,2,35,neg,diff,female,1,925
16,1,2,36,neu,diff,female,1,1150
16,1,2,37,neg,same,female,0,NA
16,1,2,38,neg,diff,female,0,NA
16,1,2,39,neg,same,female,1,1443
16,1,2,40,neg,same,female,0,NA
16,1,2,41,neu,diff,female,1,995
16,1,2,42,neg,same,female,1,1170
16,1,2,43,neu,same,female,0,NA
16,1,2,44,pos,diff,female,1,1092
16,1,2,45,neg,diff,female,1,904
16,1,2,46,pos,same,female,1,996
16,1,2,47,neg,same,female,1,867
16,1,2,48,neu,diff,female,1,1001
16,1,2,49,neg,same,female,1,1211
16,1,2,50,neg,diff,female,1,836
16,1,2,51,neg,same,female,0,NA
16,1,2,52,neg,same,female,1,1251
16,1,2,53,neg,same,female,1,839
16,1,2,54,pos,diff,female,1,1017
16,1,2,55,pos,diff,female,1,765
16,1,3,1,neu,diff,male,0,NA
16,1,3,2,neu,diff,male,0,NA
16,1,3,3,pos,diff,male,1,986
16,1,3,4,neg,diff,male,1,1129
16,1,3,5,pos,same,male,1,1026
16,1,3,6,neg,same,male,0,NA
16,1,3,7,pos,same,male,0,NA
16,1,3,8,neg,same,male,1,1048
16,1,3,9,neg,diff,male,1,994
16,1,3,10,neu,diff,male,1,816
16,1,3,11,neg,same,male,1,860
16,1,3,12,neg,diff,male,1,1168
16,1,3,13,pos,diff,male,1,962
16,1,3,14,neg,same,male,1,891
16,1,3,15,neu,diff,male,1,580
16,1,3,16,neu,diff,male,1,1264
16,1,3,17,neu,same,male,1,1348
16,1,3,18,neu,same,male,1,491
16,1,3,19,neg,diff,male,1,980
16,1,3,20,pos,diff,male,1,864
16,1,3,21,pos,diff,male,1,1156
16,1,3,22,pos,same,male,1,755
16,1,3,23,pos,same,male,0,849
16,1,3,24,pos,same,male,1,1042
16,1,3,25,pos,same,male,1,700
16,1,3,26,neu,diff,male,1,912
16,1,3,27,neg,diff,male,1,1310
16,1,3,28,pos,diff,male,1,669
16,1,3,29,neg,same,male,1,1324
16,1,3,30,pos,same,male,1,733
16,1,3,31,pos,diff,male,1,1016
16,1,3,32,neu,diff,male,1,1292
16,1,3,33,pos,same,male,1,808
16,1,3,34,neg,diff,male,1,1329
16,1,3,35,neu,diff,male,1,1491
16,1,3,36,neu,diff,male,1,1303
16,1,3,37,neg,diff,male,1,1027
16,1,3,38,neu,same,male,1,1162
16,1,3,39,neu,diff,male,1,1003
16,1,3,40,pos,diff,male,1,1052
16,1,3,41,neg,diff,male,1,1016
16,1,3,42,pos,same,male,0,1244
16,1,3,43,neg,same,male,0,NA
16,1,3,44,pos,same,male,1,1209
16,1,3,45,neg,same,male,0,NA
16,1,3,46,neu,diff,male,1,858
16,1,3,47,neg,same,male,1,1405
16,1,3,48,neu,same,male,1,671
16,1,3,49,neg,same,male,1,1245
16,1,3,50,neu,same,male,1,1359
16,1,3,51,neg,same,male,1,1000
16,1,3,52,neu,same,male,1,1098
16,1,3,53,neu,diff,male,1,1102
16,1,3,54,pos,diff,male,0,NA
16,1,3,55,neg,diff,male,0,NA
16,1,4,1,neu,diff,male,0,NA
16,1,4,2,pos,diff,male,0,NA
16,1,4,3,pos,diff,male,1,1287
16,1,4,4,neg,diff,male,1,1185
16,1,4,5,neu,diff,male,0,NA
16,1,4,6,neg,same,male,0,NA
16,1,4,7,neu,same,male,0,NA
16,1,4,8,neu,diff,male,1,1428
16,1,4,9,neu,same,male,0,NA
16,1,4,10,pos,diff,male,0,NA
16,1,4,11,neu,same,male,1,1389
16,1,4,12,neg,diff,male,1,1292
16,1,4,13,neu,same,male,1,904
16,1,4,14,neg,same,male,0,NA
16,1,4,15,neg,diff,male,0,NA
16,1,4,16,neu,diff,male,0,NA
16,1,4,17,neg,same,male,0,1227
16,1,4,18,neu,same,male,0,NA
16,1,4,19,neu,diff,male,0,NA
16,1,4,20,pos,diff,male,1,1144
16,1,4,21,neu,same,male,0,NA
16,1,4,22,pos,same,male,1,1274
16,1,4,23,pos,diff,male,1,1041
16,1,4,24,pos,same,male,1,442
16,1,4,25,pos,same,male,1,699
16,1,4,26,pos,same,male,1,1007
16,1,4,27,pos,same,male,1,528
16,1,4,28,neu,diff,male,1,929
16,1,4,29,pos,same,male,1,931
16,1,4,30,neu,same,male,1,999
16,1,4,31,neu,diff,male,1,1080
16,1,4,32,neg,diff,male,1,617
16,1,4,33,pos,diff,male,1,733
16,1,4,34,neg,same,male,1,857
16,1,4,35,pos,same,male,1,797
16,1,4,36,pos,diff,male,1,788
16,1,4,37,pos,same,male,1,746
16,1,4,38,neu,diff,male,1,985
16,1,4,39,pos,same,male,1,743
16,1,4,40,neu,same,male,1,787
16,1,4,41,pos,same,male,1,570
16,1,4,42,neu,same,male,1,819
16,1,4,43,pos,same,male,1,959
16,1,4,44,neu,same,male,1,632
16,1,4,45,neu,diff,male,1,1071
16,1,4,46,pos,diff,male,1,1469
16,1,4,47,pos,diff,male,1,1100
16,1,4,48,pos,same,male,1,1184
16,1,4,49,pos,same,male,1,583
16,1,4,50,pos,same,male,1,499
16,1,4,51,pos,same,male,1,607
16,1,4,52,pos,same,male,1,576
16,1,4,53,neu,diff,male,1,652
16,1,4,54,neg,diff,male,1,1432
16,1,4,55,neg,diff,male,1,1006
16,1,5,1,pos,diff,male,0,NA
16,1,5,2,neg,diff,male,0,NA
16,1,5,3,neu,diff,male,1,1175
16,1,5,4,neu,diff,male,1,811
16,1,5,5,neg,diff,male,1,868
16,1,5,6,pos,diff,male,1,1002
16,1,5,7,neu,diff,male,1,796
16,1,5,8,neg,diff,male,1,1090
16,1,5,9,neu,same,male,1,691
16,1,5,10,neu,diff,male,1,791
16,1,5,11,neg,diff,male,1,926
16,1,5,12,neu,same,male,1,591
16,1,5,13,pos,diff,male,1,1246
16,1,5,14,neg,diff,male,1,927
16,1,5,15,pos,same,male,1,624
16,1,5,16,neg,same,male,1,644
16,1,5,17,pos,same,male,1,701
16,1,5,18,neg,same,male,1,705
16,1,5,19,pos,same,male,1,744
16,1,5,20,pos,diff,male,1,1284
16,1,5,21,pos,same,male,1,621
16,1,5,22,pos,same,male,1,497
16,1,5,23,neu,diff,male,1,957
16,1,5,24,pos,same,male,1,1315
16,1,5,25,neg,diff,male,1,962
16,1,5,26,pos,same,male,1,827
16,1,5,27,neg,same,male,1,986
16,1,5,28,pos,same,male,1,905
16,1,5,29,neg,same,male,1,837
16,1,5,30,neu,diff,male,1,851
16,1,5,31,pos,diff,male,1,1173
16,1,5,32,neu,same,male,1,1033
16,1,5,33,pos,same,male,1,1231
16,1,5,34,pos,diff,male,1,830
16,1,5,35,pos,same,male,1,589
16,1,5,36,pos,same,male,1,699
16,1,5,37,neg,diff,male,1,751
16,1,5,38,pos,same,male,1,718
16,1,5,39,neg,same,male,1,1012
16,1,5,40,pos,same,male,1,600
16,1,5,41,neg,same,male,1,777
16,1,5,42,neu,diff,male,1,877
16,1,5,43,neu,diff,male,1,1476
16,1,5,44,neg,diff,male,1,1139
16,1,5,45,neu,same,male,1,655
16,1,5,46,neg,same,male,1,1147
16,1,5,47,neu,same,male,1,777
16,1,5,48,neu,diff,male,1,989
16,1,5,49,pos,diff,male,1,796
16,1,5,50,neu,same,male,1,818
16,1,5,51,pos,same,male,1,782
16,1,5,52,pos,diff,male,1,865
16,1,5,53,neu,diff,male,1,776
16,1,5,54,neg,diff,male,1,796
16,1,5,55,pos,diff,male,1,690
16,1,6,1,neg,diff,female,0,NA
16,1,6,2,neu,diff,female,0,NA
16,1,6,3,neg,same,female,1,843
16,1,6,4,neu,same,female,1,1037
16,1,6,5,neg,same,female,1,835
16,1,6,6,pos,diff,female,1,834
16,1,6,7,neg,same,female,1,1120
16,1,6,8,neg,diff,female,1,714
16,1,6,9,neu,diff,female,1,704
16,1,6,10,pos,diff,female,1,1172
16,1,6,11,pos,diff,female,1,664
16,1,6,12,pos,same,female,1,663
16,1,6,13,pos,same,female,1,515
16,1,6,14,pos,same,female,1,513
16,1,6,15,pos,same,female,1,512
16,1,6,16,neg,diff,female,1,686
16,1,6,17,pos,same,female,1,688
16,1,6,18,neg,same,female,1,848
16,1,6,19,neg,diff,female,1,1090
16,1,6,20,neg,same,female,0,707
16,1,6,21,neg,same,female,1,1194
16,1,6,22,pos,diff,female,1,1184
16,1,6,23,neg,same,female,1,983
16,1,6,24,neg,diff,female,1,739
16,1,6,25,neg,same,female,1,1135
16,1,6,26,pos,diff,female,1,795
16,1,6,27,pos,diff,female,1,962
16,1,6,28,pos,same,female,1,491
16,1,6,29,pos,same,female,1,855
16,1,6,30,pos,same,female,1,571
16,1,6,31,pos,same,female,1,596
16,1,6,32,neu,diff,female,1,642
16,1,6,33,neu,diff,female,1,1355
16,1,6,34,neg,diff,female,1,706
16,1,6,35,pos,diff,female,1,825
16,1,6,36,neu,diff,female,1,759
16,1,6,37,neu,diff,female,1,713
16,1,6,38,neg,diff,female,1,623
16,1,6,39,neg,diff,female,1,627
16,1,6,40,neg,same,female,0,618
16,1,6,41,neu,diff,female,1,893
16,1,6,42,neu,diff,female,1,1193
16,1,6,43,neg,diff,female,1,784
16,1,6,44,pos,diff,female,1,804
16,1,6,45,neg,same,female,1,829
16,1,6,46,neg,diff,female,1,683
16,1,6,47,pos,diff,female,1,620
16,1,6,48,neu,diff,female,1,848
16,1,6,49,neu,diff,female,1,1073
16,1,6,50,pos,diff,female,1,992
16,1,6,51,pos,diff,female,1,879
16,1,6,52,pos,same,female,1,584
16,1,6,53,pos,same,female,1,548
16,1,6,54,pos,same,female,1,490
16,1,6,55,pos,same,female,1,531
17,1,1,1,neg,same,male,0,1311
17,1,1,2,neu,same,male,0,NA
17,1,1,3,neu,diff,male,1,957
17,1,1,4,neu,same,male,1,1008
17,1,1,5,neu,same,male,1,1281
17,1,1,6,neg,diff,male,1,1111
17,1,1,7,pos,diff,male,1,1268
17,1,1,8,neg,same,male,1,1354
17,1,1,9,neu,diff,male,1,1053
17,1,1,10,neg,same,male,1,1276
17,1,1,11,neu,same,male,1,1491
17,1,1,12,neu,diff,male,1,1216
17,1,1,13,neg,diff,male,0,NA
17,1,1,14,neg,diff,male,0,NA
17,1,1,15,pos,diff,male,0,NA
17,1,1,16,neu,diff,male,0,1420
17,1,1,17,pos,same,male,0,1052
17,1,1,18,pos,diff,male,1,1291
17,1,1,19,neu,diff,male,0,977
17,1,1,20,neu,diff,male,1,835
17,1,1,21,neu,same,male,1,795
17,1,1,22,neu,same,male,1,773
17,1,1,23,neu,same,male,1,736
17,1,1,24,pos,diff,male,0,1483
17,1,1,25,neu,same,male,1,1193
17,1,1,26,pos,same,male,1,1187
17,1,1,27,pos,diff,male,0,NA
17,1,1,28,pos,same,male,0,1205
17,1,1,29,pos,same,male,1,1229
17,1,1,30,pos,same,male,1,950
17,1,1,31,pos,same,male,1,1465
17,1,1,32,pos,same,male,1,1352
17,1,1,33,neg,diff,male,0,NA
17,1,1,34,neg,diff,male,0,NA
17,1,1,35,pos,diff,male,0,931
17,1,1,36,neu,diff,male,1,1464
17,1,1,37,neu,diff,male,0,NA
17,1,1,38,neg,diff,male,0,NA
17,1,1,39,neu,same,male,1,1362
17,1,1,40,neg,same,male,0,NA
17,1,1,41,neu,same,male,1,1424
17,1,1,42,neg,same,male,1,1280
17,1,1,43,neg,diff,male,0,NA
17,1,1,44,neg,same,male,1,1120
17,1,1,45,neg,same,male,1,860
17,1,1,46,pos,diff,male,1,963
17,1,1,47,pos,diff,male,0,NA
17,1,1,48,neu,diff,male,1,1224
17,1,1,49,pos,same,male,1,544
17,1,1,50,neu,same,male,1,900
17,1,1,51,pos,same,male,1,761
17,1,1,52,neu,same,male,0,NA
17,1,1,53,neg,diff,male,1,837
17,1,1,54,neu,same,male,1,861
17,1,1,55,neg,same,male,1,884
17,1,2,1,pos,same,male,1,1154
17,1,2,2,neg,same,male,1,1261
17,1,2,3,pos,same,male,1,547
17,1,2,4,neg,same,male,1,1366
17,1,2,5,neg,diff,male,1,617
17,1,2,6,pos,diff,male,1,921
17,1,2,7,neu,diff,male,1,1150
17,1,2,8,pos,same,male,1,569
17,1,2,9,pos,diff,male,1,1163
17,1,2,10,pos,same,male,1,614
17,1,2,11,pos,same,male,1,600
17,1,2,12,neu,diff,male,1,1305
17,1,2,13,neg,diff,male,1,1246
17,1,2,14,neu,same,male,1,677
17,1,2,15,neu,diff,male,1,996
17,1,2,16,neu,same,male,1,1094
17,1,2,17,neu,same,male,1,1123
17,1,2,18,pos,diff,male,0,NA
17,1,2,19,neu,same,male,1,553
17,1,2,20,pos,same,male,1,540
17,1,2,21,neu,same,male,1,624
17,1,2,22,pos,same,male,1,593
17,1,2,23,neu,same,male,1,883
17,1,2,24,pos,same,male,1,712
17,1,2,25,neu,same,male,1,534
17,1,2,26,pos,same,male,1,1130
17,1,2,27,pos,diff,male,1,1270
17,1,2,28,neg,diff,male,1,828
17,1,2,29,pos,same,male,1,581
17,1,2,30,pos,diff,male,1,887
17,1,2,31,pos,same,male,1,733
17,1,2,32,pos,same,male,1,584
17,1,2,33,pos,same,male,1,570
17,1,2,34,pos,same,male,1,636
17,1,2,35,pos,same,male,1,1388
17,1,2,36,pos,same,male,1,734
17,1,2,37,pos,same,male,1,826
17,1,2,38,pos,same,male,1,658
17,1,2,39,pos,same,male,1,545
17,1,2,40,pos,same,male,1,725
17,1,2,41,neg,diff,male,1,1426
17,1,2,42,neu,diff,male,1,898
17,1,2,43,neg,same,male,1,776
17,1,2,44,pos,diff,male,1,866
17,1,2,45,neg,same,male,1,1289
17,1,2,46,pos,same,male,1,686
17,1,2,47,neg,same,male,0,NA
17,1,2,48,neg,diff,male,0,1195
17,1,2,49,neu,diff,male,1,1477
17,1,2,50,neu,diff,male,1,1011
17,1,2,51,neg,diff,male,1,1108
17,1,2,52,neu,same,male,1,705
17,1,2,53,neg,same,male,1,1278
17,1,2,54,neu,same,male,1,980
17,1,2,55,neg,same,male,1,1031
17,1,3,1,neu,same,female,0,NA
17,1,3,2,neu,same,female,0,NA
17,1,3,3,pos,diff,female,1,1351
17,1,3,4,neg,diff,female,1,1082
17,1,3,5,pos,same,female,1,568
17,1,3,6,pos,diff,female,1,906
17,1,3,7,pos,same,female,1,735
17,1,3,8,neu,diff,female,1,1227
17,1,3,9,pos,same,female,1,899
17,1,3,10,neu,same,female,1,1144
17,1,3,11,neu,diff,female,1,804
17,1,3,12,neu,same,female,1,637
17,1,3,13,pos,diff,female,1,733
17,1,3,14,neu,same,female,1,841
17,1,3,15,neu,diff,female,1,897
17,1,3,16,neu,same,female,1,1030
17,1,3,17,neu,same,female,1,759
17,1,3,18,neu,same,female,1,834
17,1,3,19,neu,same,female,1,1274
17,1,3,20,neg,diff,female,0,NA
17,1,3,21,neu,same,female,0,NA
17,1,3,22,neg,same,female,1,825
17,1,3,23,pos,diff,female,1,818
17,1,3,24,neg,same,female,0,1274
17,1,3,25,pos,same,female,0,1248
17,1,3,26,pos,diff,female,1,648
17,1,3,27,pos,same,female,1,792
17,1,3,28,neg,diff,female,1,1362
17,1,3,29,pos,same,female,1,789
17,1,3,30,neu,diff,female,1,815
17,1,3,31,pos,same,female,1,696
17,1,3,32,neu,same,female,1,1158
17,1,3,33,neu,diff,female,0,NA
17,1,3,34,neu,same,female,0,NA
17,1,3,35,pos,diff,female,1,1135
17,1,3,36,neg,diff,female,1,1418
17,1,3,37,neu,diff,female,0,634
17,1,3,38,pos,diff,female,1,954
17,1,3,39,neu,same,female,1,893
17,1,3,40,pos,same,female,1,691
17,1,3,41,neg,diff,female,1,1489
17,1,3,42,neu,diff,female,1,862
17,1,3,43,neg,same,female,0,NA
17,1,3,44,neu,same,female,1,1375
17,1,3,45,neg,same,female,1,1233
17,1,3,46,neu,same,female,1,760
17,1,3,47,neg,same,female,1,692
17,1,3,48,pos,diff,female,1,1042
17,1,3,49,neu,diff,female,0,NA
17,1,3,50,pos,same,female,1,443
17,1,3,51,pos,diff,female,0,1491
17,1,3,52,pos,same,female,0,992
17,1,3,53,pos,same,female,0,882
17,1,3,54,pos,same,female,1,680
17,1,3,55,pos,same,female,1,1143
17,1,4,1,pos,same,male,1,1179
17,1,4,2,pos,same,male,0,NA
17,1,4,3,pos,same,male,1,784
17,1,4,4,pos,same,male,1,713
17,1,4,5,neu,diff,male,1,855
17,1,4,6,pos,same,male,1,542
17,1,4,7,neu,same,male,0,818
17,1,4,8,pos,same,male,0,1322
17,1,4,9,neu,same,male,1,573
17,1,4,10,pos,same,male,1,608
17,1,4,11,neu,same,male,1,609
17,1,4,12,pos,same,male,1,690
17,1,4,13,pos,diff,male,0,832
17,1,4,14,pos,same,male,1,920
17,1,4,15,neu,diff,male,1,1213
17,1,4,16,pos,same,male,1,582
17,1,4,17,pos,diff,male,1,1031
17,1,4,18,neu,diff,male,1,1272
17,1,4,19,pos,same,male,1,766
17,1,4,20,neu,same,male,1,1017
17,1,4,21,neu,diff,male,1,1289
17,1,4,22,neu,same,male,0,NA
17,1,4,23,pos,diff,male,1,1453
17,1,4,24,pos,diff,male,1,844
17,1,4,25,neg,diff,male,0,NA
17,1,4,26,neu,diff,male,0,NA
17,1,4,27,neg,same,male,1,1151
17,1,4,28,neu,same,male,1,1466
17,1,4,29,pos,diff,male,1,1016
17,1,4,30,neu,same,male,0,1417
17,1,4,31,pos,same,male,1,1145
17,1,4,32,neu,same,male,1,1365
17,1,4,33,neu,diff,male,0,1048
17,1,4,34,neg,diff,male,1,1095
17,1,4,35,neg,diff,male,0,NA
17,1,4,36,neu,diff,male,0,1191
17,1,4,37,neg,same,male,1,1249
17,1,4,38,neu,same,male,0,1399
17,1,4,39,neu,diff,male,0,776
17,1,4,40,neu,same,male,0,819
17,1,4,41,pos,diff,male,1,779
17,1,4,42,neu,same,male,1,502
17,1,4,43,pos,same,male,1,731
17,1,4,44,neu,same,male,1,871
17,1,4,45,pos,same,male,1,558
17,1,4,46,neu,same,male,1,657
17,1,4,47,pos,same,male,1,496
17,1,4,48,neu,same,male,1,694
17,1,4,49,pos,same,male,1,532
17,1,4,50,pos,diff,male,1,1192
17,1,4,51,pos,same,male,0,NA
17,1,4,52,neg,diff,male,1,1304
17,1,4,53,neg,diff,male,1,1341
17,1,4,54,neg,same,male,1,945
17,1,4,55,neg,same,male,1,1029
17,1,5,1,pos,same,female,0,NA
17,1,5,2,neu,same,female,0,NA
17,1,5,3,neg,diff,female,1,898
17,1,5,4,neg,diff,female,1,871
17,1,5,5,pos,diff,female,1,1070
17,1,5,6,neu,diff,female,0,NA
17,1,5,7,pos,same,female,1,958
17,1,5,8,neu,same,female,1,593
17,1,5,9,neg,diff,female,0,NA
17,1,5,10,neg,diff,female,0,NA
17,1,5,11,neu,diff,female,0,1086
17,1,5,12,neg,same,female,0,1068
17,1,5,13,pos,diff,female,1,954
17,1,5,14,neg,same,female,1,653
17,1,5,15,neu,diff,female,0,1485
17,1,5,16,neu,diff,female,0,970
17,1,5,17,neu,same,female,0,1501
17,1,5,18,neu,same,female,1,782
17,1,5,19,pos,diff,female,0,NA
17,1,5,20,neg,diff,female,0,NA
17,1,5,21,pos,same,female,1,791
17,1,5,22,neg,same,female,0,817
17,1,5,23,pos,same,female,1,1081
17,1,5,24,neg,same,female,1,807
17,1,5,25,neg,diff,female,1,1200
17,1,5,26,neg,same,female,1,857
17,1,5,27,neg,same,female,1,592
17,1,5,28,pos,diff,female,1,882
17,1,5,29,pos,diff,female,1,728
17,1,5,30,neg,diff,female,0,1013
17,1,5,31,pos,same,female,0,NA
17,1,5,32,neg,same,female,1,687
17,1,5,33,pos,same,female,1,701
17,1,5,34,pos,diff,female,1,570
17,1,5,35,neg,diff,female,1,1261
17,1,5,36,neu,diff,female,1,1396
17,1,5,37,neu,diff,female,1,677
17,1,5,38,neu,same,female,1,724
17,1,5,39,neg,diff,female,1,816
17,1,5,40,neu,same,female,1,1145
17,1,5,41,neu,diff,female,0,NA
17,1,5,42,pos,diff,female,1,1250
17,1,5,43,neu,same,female,0,NA
17,1,5,44,neu,diff,female,0,NA
17,1,5,45,pos,diff,female,0,1447
17,1,5,46,neg,diff,female,1,663
17,1,5,47,pos,same,female,0,NA
17,1,5,48,neg,same,female,0,NA
17,1,5,49,neu,diff,female,0,1081
17,1,5,50,pos,diff,female,1,1127
17,1,5,51,neg,diff,female,1,627
17,1,5,52,neg,diff,female,0,NA
17,1,5,53,neg,same,female,1,1159
17,1,5,54,neu,diff,female,1,1490
17,1,5,55,neg,same,female,0,NA
17,1,6,1,neg,same,female,0,858
17,1,6,2,pos,same,female,0,NA
17,1,6,3,neg,same,female,0,NA
17,1,6,4,neg,diff,female,0,NA
17,1,6,5,neu,diff,female,1,1429
17,1,6,6,neg,same,female,1,549
17,1,6,7,neg,diff,female,1,1241
17,1,6,8,neu,diff,female,1,736
17,1,6,9,neg,same,female,0,1436
17,1,6,10,neu,same,female,0,NA
17,1,6,11,neg,same,female,0,NA
17,1,6,12,neu,same,female,1,887
17,1,6,13,pos,diff,female,1,1469
17,1,6,14,neu,same,female,0,NA
17,1,6,15,neu,diff,female,1,740
17,1,6,16,neu,same,female,0,NA
17,1,6,17,neg,diff,female,1,1069
17,1,6,18,neg,diff,female,0,1308
17,1,6,19,neg,same,female,1,865
17,1,6,20,neu,diff,female,1,1128
17,1,6,21,neg,same,female,1,660
17,1,6,22,neg,diff,female,1,722
17,1,6,23,neu,diff,female,1,1407
17,1,6,24,neu,diff,female,0,784
17,1,6,25,neu,same,female,1,586
17,1,6,26,neu,same,female,1,827
17,1,6,27,neu,same,female,1,564
17,1,6,28,pos,diff,female,1,1223
17,1,6,29,neg,diff,female,1,800
17,1,6,30,pos,same,female,1,633
17,1,6,31,neg,same,female,1,1433
17,1,6,32,pos,same,female,1,584
17,1,6,33,pos,diff,female,1,602
17,1,6,34,neu,diff,female,1,715
17,1,6,35,pos,same,female,1,664
17,1,6,36,neu,same,female,0,935
17,1,6,37,pos,same,female,1,1019
17,1,6,38,pos,diff,female,0,939
17,1,6,39,pos,same,female,0,NA
17,1,6,40,neg,diff,female,1,799
17,1,6,41,pos,same,female,1,712
17,1,6,42,neg,same,female,1,1349
17,1,6,43,neg,diff,female,1,1480
17,1,6,44,pos,diff,female,1,1478
17,1,6,45,pos,diff,female,0,NA
17,1,6,46,pos,same,female,1,1470
17,1,6,47,pos,same,female,0,828
17,1,6,48,neu,diff,female,1,1413
17,1,6,49,neu,diff,female,0,533
17,1,6,50,neu,same,female,1,489
17,1,6,51,neu,same,female,1,735
17,1,6,52,neg,diff,female,1,1194
17,1,6,53,neg,diff,female,1,612
17,1,6,54,neu,diff,female,1,773
17,1,6,55,neu,diff,female,0,NA
18,1,1,1,neu,same,female,0,NA
18,1,1,2,neg,same,female,0,NA
18,1,1,3,neg,diff,female,0,NA
18,1,1,4,neg,same,female,1,647
18,1,1,5,neg,same,female,1,679
18,1,1,6,neu,diff,female,0,NA
18,1,1,7,pos,diff,female,1,1167
18,1,1,8,neu,same,female,1,1049
18,1,1,9,pos,same,female,1,696
18,1,1,10,pos,diff,female,1,1430
18,1,1,11,neu,diff,female,1,1318
18,1,1,12,neu,diff,female,0,NA
18,1,1,13,neu,same,female,0,NA
18,1,1,14,pos,diff,female,1,1348
18,1,1,15,neu,same,female,1,663
18,1,1,16,neg,diff,female,1,1447
18,1,1,17,neg,diff,female,0,NA
18,1,1,18,neu,diff,female,0,1417
18,1,1,19,neg,same,female,0,NA
18,1,1,20,neg,diff,female,0,NA
18,1,1,21,neu,diff,female,0,NA
18,1,1,22,neg,same,female,0,NA
18,1,1,23,pos,diff,female,0,NA
18,1,1,24,neu,diff,female,0,NA
18,1,1,25,pos,same,female,0,1208
18,1,1,26,pos,diff,female,0,817
18,1,1,27,pos,same,female,1,1273
18,1,1,28,pos,same,female,1,1023
18,1,1,29,neg,diff,female,1,944
18,1,1,30,pos,same,female,1,676
18,1,1,31,neg,same,female,1,1298
18,1,1,32,pos,same,female,0,1016
18,1,1,33,neu,diff,female,1,1160
18,1,1,34,neg,diff,female,1,1043
18,1,1,35,pos,diff,female,1,1075
18,1,1,36,neg,same,female,1,481
18,1,1,37,neg,diff,female,1,872
18,1,1,38,pos,diff,female,1,1134
18,1,1,39,neu,diff,female,0,NA
18,1,1,40,neg,diff,female,0,NA
18,1,1,41,neg,diff,female,0,NA
18,1,1,42,neg,same,female,1,1454
18,1,1,43,neg,same,female,0,NA
18,1,1,44,neu,diff,female,0,NA
18,1,1,45,neg,same,female,1,761
18,1,1,46,neu,same,female,0,NA
18,1,1,47,neu,diff,female,0,NA
18,1,1,48,neg,diff,female,1,1280
18,1,1,49,neu,same,female,0,NA
18,1,1,50,neg,same,female,1,1121
18,1,1,51,neu,same,female,0,1358
18,1,1,52,pos,diff,female,1,1089
18,1,1,53,pos,diff,female,1,1470
18,1,1,54,neg,diff,female,1,1036
18,1,1,55,neu,diff,female,1,1356
18,1,2,1,pos,diff,male,1,814
18,1,2,2,neu,diff,male,1,1319
18,1,2,3,pos,same,male,1,492
18,1,2,4,neg,diff,male,1,850
18,1,2,5,neu,diff,male,1,1161
18,1,2,6,pos,diff,male,1,788
18,1,2,7,pos,diff,male,1,1230
18,1,2,8,neu,diff,male,1,886
18,1,2,9,neg,diff,male,1,1307
18,1,2,10,neu,same,male,1,560
18,1,2,11,neg,same,male,1,835
18,1,2,12,neg,diff,male,0,NA
18,1,2,13,neg,same,male,1,1259
18,1,2,14,neg,same,male,1,946
18,1,2,15,neg,same,male,1,821
18,1,2,16,neg,same,male,1,654
18,1,2,17,neg,same,male,1,717
18,1,2,18,pos,diff,male,1,1194
18,1,2,19,neu,diff,male,1,899
18,1,2,20,pos,same,male,1,936
18,1,2,21,neu,same,male,0,796
18,1,2,22,neg,diff,male,1,1190
18,1,2,23,neu,same,male,1,560
18,1,2,24,neg,same,male,1,1043
18,1,2,25,pos,diff,male,1,755
18,1,2,26,neg,same,male,1,510
18,1,2,27,neg,diff,male,1,1219
18,1,2,28,pos,diff,male,1,987
18,1,2,29,neu,diff,male,1,1437
18,1,2,30,pos,same,male,1,797
18,1,2,31,neu,same,male,0,1414
18,1,2,32,neg,diff,male,1,1367
18,1,2,33,neu,same,male,1,506
18,1,2,34,neu,diff,male,1,1391
18,1,2,35,neu,same,male,1,800
18,1,2,36,neg,diff,male,1,826
18,1,2,37,neu,same,male,1,1234
18,1,2,38,neg,same,male,1,777
18,1,2,39,neu,same,male,1,995
18,1,2,40,neg,same,male,1,773
18,1,2,41,pos,diff,male,1,1007
18,1,2,42,neg,same,male,1,433
18,1,2,43,pos,same,male,1,889
18,1,2,44,neu,diff,male,1,1054
18,1,2,45,neu,diff,male,1,1101
18,1,2,46,neg,diff,male,1,810
18,1,2,47,neu,same,male,1,948
18,1,2,48,neg,same,male,1,983
18,1,2,49,pos,diff,male,1,857
18,1,2,50,neg,same,male,1,784
18,1,2,51,neg,diff,male,1,1066
18,1,2,52,neg,same,male,1,776
18,1,2,53,neg,same,male,1,515
18,1,2,54,neg,same,male,1,1016
18,1,2,55,neg,same,male,1,441
18,1,3,1,neg,same,female,0,708
18,1,3,2,pos,same,female,0,1361
18,1,3,3,neg,same,female,1,484
18,1,3,4,neg,diff,female,1,1050
18,1,3,5,neg,same,female,1,537
18,1,3,6,neg,same,female,1,637
18,1,3,7,neg,same,female,1,572
18,1,3,8,neu,diff,female,1,974
18,1,3,9,neu,diff,female,1,1312
18,1,3,10,pos,diff,female,1,757
18,1,3,11,pos,diff,female,1,1281
18,1,3,12,pos,same,female,1,615
18,1,3,13,pos,same,female,1,503
18,1,3,14,pos,same,female,1,477
18,1,3,15,neg,diff,female,1,819
18,1,3,16,neu,diff,female,1,716
18,1,3,17,neg,same,female,1,648
18,1,3,18,neu,same,female,1,536
18,1,3,19,pos,diff,female,1,652
18,1,3,20,neg,diff,female,1,699
18,1,3,21,pos,same,female,1,552
18,1,3,22,neg,same,female,1,827
18,1,3,23,pos,same,female,1,516
18,1,3,24,neg,same,female,1,712
18,1,3,25,neu,diff,female,1,742
18,1,3,26,neg,same,female,1,449
18,1,3,27,neu,same,female,1,857
18,1,3,28,pos,diff,female,1,816
18,1,3,29,neg,diff,female,1,744
18,1,3,30,pos,same,female,1,932
18,1,3,31,neg,same,female,0,1112
18,1,3,32,pos,same,female,0,965
18,1,3,33,neg,same,female,1,520
18,1,3,34,neg,diff,female,0,1133
18,1,3,35,neg,same,female,0,1048
18,1,3,36,pos,diff,female,1,728
18,1,3,37,pos,diff,female,1,1060
18,1,3,38,pos,same,female,1,595
18,1,3,39,neg,diff,female,1,709
18,1,3,40,neg,diff,female,1,1026
18,1,3,41,neg,same,female,1,450
18,1,3,42,neg,same,female,1,586
18,1,3,43,neg,same,female,1,587
18,1,3,44,neu,diff,female,1,877
18,1,3,45,pos,diff,female,1,932
18,1,3,46,pos,diff,female,0,NA
18,1,3,47,pos,same,female,1,1370
18,1,3,48,neu,diff,female,1,700
18,1,3,49,pos,same,female,1,537
18,1,3,50,neg,diff,female,1,845
18,1,3,51,pos,same,female,1,1109
18,1,3,52,neg,same,female,1,450
18,1,3,53,neu,diff,female,1,585
18,1,3,54,neg,same,female,1,683
18,1,3,55,neu,same,female,1,681
18,1,4,1,pos,same,male,0,NA
18,1,4,2,neu,same,male,1,1081
18,1,4,3,pos,same,male,0,983
18,1,4,4,neg,diff,male,1,793
18,1,4,5,pos,same,male,1,1011
18,1,4,6,neu,diff,male,1,1316
18,1,4,7,neu,diff,male,1,776
18,1,4,8,neu,same,male,1,514
18,1,4,9,neu,same,male,1,584
18,1,4,10,neu,same,male,1,618
18,1,4,11,neg,diff,male,1,698
18,1,4,12,neg,diff,male,1,1160
18,1,4,13,neg,same,male,1,499
18,1,4,14,neu,diff,male,1,936
18,1,4,15,neu,diff,male,1,1212
18,1,4,16,pos,diff,male,1,1092
18,1,4,17,neg,diff,male,1,786
18,1,4,18,pos,same,male,1,748
18,1,4,19,neu,diff,male,1,839
18,1,4,20,pos,same,male,1,735
18,1,4,21,pos,diff,male,1,1115
18,1,4,22,neu,diff,male,1,615
18,1,4,23,neg,diff,male,1,664
18,1,4,24,pos,diff,male,1,839
18,1,4,25,neg,same,male,1,463
18,1,4,26,neg,diff,male,1,598
18,1,4,27,neg,same,male,1,440
18,1,4,28,neu,diff,male,1,576
18,1,4,29,neg,same,male,1,706
18,1,4,30,pos,diff,male,1,895
18,1,4,31,neg,same,male,1,453
18,1,4,32,pos,same,male,1,445
18,1,4,33,neg,same,male,1,885
18,1,4,34,pos,same,male,1,410
18,1,4,35,neu,diff,male,1,548
18,1,4,36,pos,same,male,1,488
18,1,4,37,neu,same,male,1,1166
18,1,4,38,pos,same,male,1,744
18,1,4,39,neg,diff,male,1,1108
18,1,4,40,neg,diff,male,1,1281
18,1,4,41,pos,diff,male,0,NA
18,1,4,42,neg,same,male,0,NA
18,1,4,43,pos,same,male,1,1249
18,1,4,44,neg,same,male,0,NA
18,1,4,45,neu,diff,male,0,NA
18,1,4,46,neg,same,male,0,NA
18,1,4,47,neg,diff,male,0,760
18,1,4,48,pos,diff,male,1,1362
18,1,4,49,neg,same,male,0,1125
18,1,4,50,neg,diff,male,1,1058
18,1,4,51,pos,diff,male,1,1425
18,1,4,52,neg,same,male,1,689
18,1,4,53,pos,same,male,1,687
18,1,4,54,neg,same,male,1,509
18,1,4,55,neu,diff,male,1,930
18,1,5,1,neg,diff,female,1,409
18,1,5,2,pos,diff,female,1,722
18,1,5,3,neg,same,female,1,495
18,1,5,4,neu,diff,female,1,757
18,1,5,5,neu,diff,female,1,672
18,1,5,6,neg,diff,female,1,991
18,1,5,7,pos,diff,female,0,992
18,1,5,8,pos,diff,female,1,1042
18,1,5,9,neg,diff,female,1,1090
18,1,5,10,neg,diff,female,1,1231
18,1,5,11,pos,diff,female,1,822
18,1,5,12,pos,diff,female,1,719
18,1,5,13,neg,diff,female,1,1147
18,1,5,14,pos,same,female,1,743
18,1,5,15,neg,same,female,1,467
18,1,5,16,neu,diff,female,1,1017
18,1,5,17,neg,same,female,1,522
18,1,5,18,neg,diff,female,1,1294
18,1,5,19,pos,diff,female,1,724
18,1,5,20,pos,diff,female,1,704
18,1,5,21,pos,same,female,1,558
18,1,5,22,neg,diff,female,1,529
18,1,5,23,pos,same,female,1,837
18,1,5,24,neg,same,female,1,1117
18,1,5,25,pos,same,female,1,570
18,1,5,26,neg,same,female,1,972
18,1,5,27,neu,diff,female,1,1039
18,1,5,28,pos,diff,female,1,1102
18,1,5,29,neg,diff,female,1,939
18,1,5,30,neu,diff,female,1,1311
18,1,5,31,neg,same,female,1,1476
18,1,5,32,neu,same,female,1,914
18,1,5,33,neg,same,female,1,1287
18,1,5,34,pos,diff,female,1,781
18,1,5,35,pos,diff,female,1,807
18,1,5,36,neg,diff,female,1,881
18,1,5,37,neu,diff,female,1,1191
18,1,5,38,neg,same,female,1,801
18,1,5,39,pos,diff,female,0,970
18,1,5,40,neg,same,female,1,1484
18,1,5,41,pos,same,female,0,794
18,1,5,42,neu,diff,female,1,1092
18,1,5,43,neu,diff,female,1,736
18,1,5,44,neg,diff,female,1,1132
18,1,5,45,neu,same,female,1,1064
18,1,5,46,pos,diff,female,0,487
18,1,5,47,neg,diff,female,1,733
18,1,5,48,pos,same,female,1,473
18,1,5,49,neu,diff,female,1,1087
18,1,5,50,neu,diff,female,1,989
18,1,5,51,pos,diff,female,1,863
18,1,5,52,pos,diff,female,1,678
18,1,5,53,pos,same,female,1,933
18,1,5,54,neu,diff,female,1,648
18,1,5,55,neu,diff,female,1,1319
18,1,6,1,pos,diff,male,1,339
18,1,6,2,pos,diff,male,1,1103
18,1,6,3,pos,same,male,1,716
18,1,6,4,neg,diff,male,1,808
18,1,6,5,neg,diff,male,1,738
18,1,6,6,neg,same,male,1,1181
18,1,6,7,neu,diff,male,1,839
18,1,6,8,neu,diff,male,1,896
18,1,6,9,neu,same,male,1,692
18,1,6,10,neg,diff,male,0,NA
18,1,6,11,pos,diff,male,1,1394
18,1,6,12,neg,same,male,1,739
18,1,6,13,pos,same,male,1,1215
18,1,6,14,neg,same,male,1,439
18,1,6,15,pos,same,male,1,543
18,1,6,16,pos,diff,male,1,723
18,1,6,17,neu,diff,male,1,1104
18,1,6,18,pos,same,male,1,493
18,1,6,19,neu,same,male,1,899
18,1,6,20,pos,same,male,1,984
18,1,6,21,neg,diff,male,1,810
18,1,6,22,pos,same,male,1,515
18,1,6,23,neg,same,male,1,871
18,1,6,24,neg,diff,male,1,750
18,1,6,25,neg,same,male,1,777
18,1,6,26,neg,same,male,1,979
18,1,6,27,neg,same,male,1,710
18,1,6,28,pos,diff,male,1,691
18,1,6,29,pos,diff,male,1,913
18,1,6,30,neu,diff,male,1,1014
18,1,6,31,pos,same,male,0,NA
18,1,6,32,neu,same,male,0,NA
18,1,6,33,neg,diff,male,0,1325
18,1,6,34,neu,same,male,1,1409
18,1,6,35,neg,same,male,1,498
18,1,6,36,pos,diff,male,1,792
18,1,6,37,neu,diff,male,1,1122
18,1,6,38,pos,same,male,1,830
18,1,6,39,neu,same,male,1,903
18,1,6,40,neg,diff,male,1,635
18,1,6,41,neg,diff,male,1,1499
18,1,6,42,pos,diff,male,1,1287
18,1,6,43,neu,diff,male,1,1117
18,1,6,44,neu,diff,male,1,1017
18,1,6,45,neu,same,male,1,538
18,1,6,46,neu,same,male,1,558
18,1,6,47,neu,same,male,1,625
18,1,6,48,neu,same,male,1,626
18,1,6,49,neu,same,male,1,498
18,1,6,50,neu,same,male,1,536
18,1,6,51,neg,diff,male,0,523
18,1,6,52,neu,same,male,1,576
18,1,6,53,neu,diff,male,1,1299
18,1,6,54,neu,same,male,1,904
18,1,6,55,neu,same,male,1,637
19,1,1,1,neg,same,female,0,NA
19,1,1,2,pos,same,female,0,NA
19,1,1,3,neu,diff,female,1,919
19,1,1,4,neg,diff,female,1,905
19,1,1,5,neu,same,female,1,1399
19,1,1,6,neu,diff,female,0,1433
19,1,1,7,neu,same,female,0,1184
19,1,1,8,neg,diff,female,0,NA
19,1,1,9,neu,same,female,1,955
19,1,1,10,neu,diff,female,1,801
19,1,1,11,neg,diff,female,1,730
19,1,1,12,pos,diff,female,0,NA
19,1,1,13,neu,diff,female,0,906
19,1,1,14,neg,diff,female,1,728
19,1,1,15,neg,diff,female,0,NA
19,1,1,16,neu,diff,female,0,NA
19,1,1,17,neg,same,female,1,897
19,1,1,18,neu,same,female,1,1389
19,1,1,19,neu,diff,female,1,1436
19,1,1,20,neu,same,female,1,579
19,1,1,21,neu,same,female,1,1279
19,1,1,22,neu,same,female,1,760
19,1,1,23,neu,same,female,1,713
19,1,1,24,neu,same,female,1,800
19,1,1,25,neu,same,female,1,745
19,1,1,26,neu,same,female,1,680
19,1,1,27,neu,same,female,1,793
19,1,1,28,neu,same,female,1,671
19,1,1,29,neu,same,female,1,638
19,1,1,30,neg,diff,female,1,789
19,1,1,31,neu,same,female,1,1099
19,1,1,32,neg,same,female,0,783
19,1,1,33,neu,same,female,1,771
19,1,1,34,neu,diff,female,1,1108
19,1,1,35,neu,same,female,0,NA
19,1,1,36,pos,diff,female,1,1268
19,1,1,37,neu,same,female,1,1162
19,1,1,38,neu,diff,female,1,1260
19,1,1,39,neu,same,female,0,NA
19,1,1,40,neg,diff,female,1,1143
19,1,1,41,pos,diff,female,0,NA
19,1,1,42,neg,same,female,0,1473
19,1,1,43,neu,diff,female,0,NA
19,1,1,44,neg,same,female,0,NA
19,1,1,45,neg,diff,female,0,NA
19,1,1,46,neg,same,female,0,NA
19,1,1,47,pos,diff,female,0,NA
19,1,1,48,neu,diff,female,0,NA
19,1,1,49,pos,same,female,0,NA
19,1,1,50,pos,diff,female,0,NA
19,1,1,51,pos,same,female,0,NA
19,1,1,52,pos,same,female,1,1317
19,1,1,53,pos,same,female,1,1012
19,1,1,54,pos,same,female,1,824
19,1,1,55,neu,diff,female,1,1188
19,1,2,1,neu,diff,male,0,NA
19,1,2,2,neg,diff,male,0,NA
19,1,2,3,neu,same,male,1,508
19,1,2,4,pos,diff,male,1,715
19,1,2,5,neu,same,male,1,753
19,1,2,6,neu,diff,male,1,912
19,1,2,7,neu,same,male,0,NA
19,1,2,8,neg,diff,male,0,NA
19,1,2,9,neg,diff,male,0,NA
19,1,2,10,neg,same,male,1,954
19,1,2,11,neg,same,male,1,1072
19,1,2,12,neg,same,male,1,911
19,1,2,13,neu,diff,male,1,957
19,1,2,14,neu,diff,male,1,1300
19,1,2,15,pos,diff,male,1,1168
19,1,2,16,neu,same,male,0,NA
19,1,2,17,neu,diff,male,1,1000
19,1,2,18,pos,diff,male,1,857
19,1,2,19,pos,diff,male,1,1485
19,1,2,20,neu,diff,male,1,990
19,1,2,21,neg,diff,male,0,NA
19,1,2,22,pos,diff,male,0,NA
19,1,2,23,neg,same,male,0,1061
19,1,2,24,pos,same,male,0,NA
19,1,2,25,neu,diff,male,1,1244
19,1,2,26,neg,diff,male,0,NA
19,1,2,27,pos,diff,male,0,NA
19,1,2,28,pos,diff,male,0,NA
19,1,2,29,pos,same,male,1,982
19,1,2,30,neu,diff,male,0,NA
19,1,2,31,pos,same,male,1,1117
19,1,2,32,pos,diff,male,0,NA
19,1,2,33,neg,diff,male,1,860
19,1,2,34,neu,diff,male,0,NA
19,1,2,35,pos,diff,male,0,NA
19,1,2,36,neg,diff,male,1,1321
19,1,2,37,neu,diff,male,0,NA
19,1,2,38,neg,same,male,0,NA
19,1,2,39,pos,diff,male,0,NA
19,1,2,40,pos,diff,male,0,NA
19,1,2,41,pos,same,male,0,1179
19,1,2,42,neg,diff,male,1,783
19,1,2,43,neu,diff,male,1,963
19,1,2,44,neg,same,male,1,1068
19,1,2,45,pos,diff,male,1,1211
19,1,2,46,neu,diff,male,1,871
19,1,2,47,neg,diff,male,1,1406
19,1,2,48,neu,same,male,1,1391
19,1,2,49,neg,same,male,0,NA
19,1,2,50,neu,same,male,0,NA
19,1,2,51,neg,same,male,1,795
19,1,2,52,pos,diff,male,1,1249
19,1,2,53,neu,diff,male,1,995
19,1,2,54,neu,diff,male,0,NA
19,1,2,55,neu,same,male,1,970
19,1,3,1,neu,same,female,0,NA
19,1,3,2,neu,same,female,0,NA
19,1,3,3,neg,diff,female,1,687
19,1,3,4,neu,same,female,1,960
19,1,3,5,pos,diff,female,0,NA
19,1,3,6,neu,same,female,1,817
19,1,3,7,neg,diff,female,1,1180
19,1,3,8,pos,diff,female,1,1008
19,1,3,9,neg,same,female,1,962
19,1,3,10,pos,same,female,1,843
19,1,3,11,neg,same,female,1,716
19,1,3,12,pos,same,female,1,915
19,1,3,13,neg,same,female,1,1266
19,1,3,14,neu,diff,female,1,616
19,1,3,15,neu,diff,female,1,1356
19,1,3,16,pos,diff,female,0,915
19,1,3,17,neg,diff,female,1,850
19,1,3,18,neu,diff,female,1,1091
19,1,3,19,neg,same,female,1,980
19,1,3,20,pos,diff,female,1,1328
19,1,3,21,pos,diff,female,0,NA
19,1,3,22,neu,diff,female,0,NA
19,1,3,23,neg,diff,female,0,NA
19,1,3,24,neu,same,female,1,1382
19,1,3,25,neu,diff,female,0,NA
19,1,3,26,neu,same,female,0,NA
19,1,3,27,neu,same,female,0,NA
19,1,3,28,neu,same,female,1,946
19,1,3,29,pos,diff,female,0,NA
19,1,3,30,neu,same,female,1,1252
19,1,3,31,neg,diff,female,1,792
19,1,3,32,neu,same,female,1,1470
19,1,3,33,neu,diff,female,1,1101
19,1,3,34,pos,diff,female,1,865
19,1,3,35,neu,same,female,1,840
19,1,3,36,pos,same,female,1,697
19,1,3,37,pos,diff,female,1,829
19,1,3,38,neg,diff,female,1,636
19,1,3,39,neu,diff,female,1,850
19,1,3,40,neu,diff,female,1,883
19,1,3,41,pos,diff,female,1,877
19,1,3,42,neg,diff,female,1,1363
19,1,3,43,pos,same,female,1,637
19,1,3,44,neg,same,female,1,739
19,1,3,45,pos,same,female,1,703
19,1,3,46,pos,diff,female,1,1011
19,1,3,47,neg,diff,female,0,NA
19,1,3,48,pos,same,female,0,NA
19,1,3,49,neu,diff,female,1,1081
19,1,3,50,pos,same,female,1,587
19,1,3,51,neg,diff,female,1,825
19,1,3,52,neg,diff,female,0,NA
19,1,3,53,neg,same,female,0,NA
19,1,3,54,neg,same,female,1,1287
19,1,3,55,neg,same,female,1,960
19,1,4,1,neg,same,female,0,NA
19,1,4,2,neg,same,female,0,NA
19,1,4,3,neg,same,female,1,731
19,1,4,4,pos,diff,female,1,629
19,1,4,5,neg,same,female,1,1467
19,1,4,6,neu,diff,female,1,666
19,1,4,7,pos,diff,female,1,985
19,1,4,8,neu,same,female,1,501
19,1,4,9,neu,diff,female,1,720
19,1,4,10,neg,diff,female,1,810
19,1,4,11,neu,same,female,0,1347
19,1,4,12,neg,same,female,0,NA
19,1,4,13,neu,same,female,1,1240
19,1,4,14,neg,same,female,0,NA
19,1,4,15,neg,diff,female,0,NA
19,1,4,16,neg,same,female,1,1041
19,1,4,17,neg,same,female,1,953
19,1,4,18,pos,diff,female,1,1008
19,1,4,19,neg,same,female,1,881
19,1,4,20,neg,diff,female,1,746
19,1,4,21,pos,diff,female,1,1049
19,1,4,22,pos,diff,female,0,1490
19,1,4,23,neg,diff,female,0,NA
19,1,4,24,pos,same,female,0,1252
19,1,4,25,pos,diff,female,0,NA
19,1,4,26,neu,diff,female,1,1340
19,1,4,27,pos,same,female,1,656
19,1,4,28,neu,same,female,1,860
19,1,4,29,pos,same,female,1,720
19,1,4,30,neu,same,female,1,809
19,1,4,31,pos,same,female,1,1490
19,1,4,32,neu,same,female,1,1220
19,1,4,33,pos,same,female,0,NA
19,1,4,34,neg,diff,female,1,1014
19,1,4,35,neu,diff,female,0,986
19,1,4,36,neg,same,female,1,616
19,1,4,37,neu,same,female,1,956
19,1,4,38,pos,diff,female,1,835
19,1,4,39,neu,same,female,0,NA
19,1,4,40,neg,diff,female,0,1325
19,1,4,41,neu,same,female,0,NA
19,1,4,42,neu,diff,female,0,NA
19,1,4,43,pos,diff,female,1,1230
19,1,4,44,neu,same,female,1,1437
19,1,4,45,pos,same,female,0,1075
19,1,4,46,pos,diff,female,1,1010
19,1,4,47,neg,diff,female,1,1028
19,1,4,48,neu,diff,female,0,698
19,1,4,49,pos,diff,female,1,926
19,1,4,50,pos,diff,female,0,NA
19,1,4,51,pos,same,female,1,678
19,1,4,52,neg,diff,female,1,840
19,1,4,53,neg,diff,female,1,1177
19,1,4,54,neg,same,female,1,781
19,1,4,55,neu,diff,female,1,881
19,1,5,1,pos,diff,male,0,NA
19,1,5,2,pos,diff,male,0,NA
19,1,5,3,pos,same,male,1,643
19,1,5,4,neg,diff,male,1,556
19,1,5,5,pos,same,male,1,1123
19,1,5,6,neu,diff,male,1,764
19,1,5,7,neu,diff,male,1,797
19,1,5,8,neu,same,male,1,804
19,1,5,9,neg,diff,male,1,685
19,1,5,10,pos,diff,male,0,NA
19,1,5,11,neu,diff,male,0,NA
19,1,5,12,pos,same,male,0,NA
19,1,5,13,neu,same,male,0,NA
19,1,5,14,neu,diff,male,0,NA
19,1,5,15,pos,diff,male,1,1095
19,1,5,16,neu,same,male,0,NA
19,1,5,17,neu,diff,male,0,NA
19,1,5,18,pos,diff,male,1,1133
19,1,5,19,neu,same,male,0,NA
19,1,5,20,pos,same,male,1,1450
19,1,5,21,pos,diff,male,0,NA
19,1,5,22,neu,diff,male,0,NA
19,1,5,23,pos,same,male,1,1112
19,1,5,24,neg,diff,male,1,687
19,1,5,25,neu,diff,male,0,NA
19,1,5,26,pos,diff,male,0,NA
19,1,5,27,neu,same,male,1,779
19,1,5,28,neg,diff,male,1,815
19,1,5,29,neu,same,male,1,987
19,1,5,30,neu,diff,male,1,1193
19,1,5,31,neu,same,male,1,944
19,1,5,32,neu,same,male,1,1223
19,1,5,33,neu,same,male,1,931
19,1,5,34,pos,diff,male,1,935
19,1,5,35,neu,same,male,1,1499
19,1,5,36,neg,diff,male,1,655
19,1,5,37,pos,diff,male,1,1035
19,1,5,38,pos,diff,male,1,993
19,1,5,39,neg,diff,male,1,1424
19,1,5,40,pos,same,male,0,1303
19,1,5,41,neg,same,male,1,979
19,1,5,42,neg,diff,male,0,NA
