"","Subject","Group","Block","Trial","Emotion","SameDiff","Gender","ACC","RT"
"1",10,"A",1,1,"pos","same","female",0,NA
"2",10,"A",1,2,"neg","same","female",0,NA
"3",10,"A",1,3,"neu","diff","female",1,897
"4",10,"A",1,4,"neu","diff","female",1,1469
"5",10,"A",1,5,"neu","same","female",1,956
"6",10,"A",1,6,"neg","diff","female",0,NA
"7",10,"A",1,7,"pos","diff","female",1,1332
"8",10,"A",1,8,"neu","diff","female",0,NA
"9",10,"A",1,9,"pos","same","female",1,827
"10",10,"A",1,10,"neu","same","female",1,1034
"11",10,"A",1,11,"pos","same","female",1,656
"12",10,"A",1,12,"pos","diff","female",1,892
"13",10,"A",1,13,"neu","diff","female",1,1256
"14",10,"A",1,14,"neg","diff","female",1,1260
"15",10,"A",1,15,"pos","diff","female",1,913
"16",10,"A",1,16,"pos","diff","female",1,1055
"17",10,"A",1,17,"pos","same","female",1,683
"18",10,"A",1,18,"pos","same","female",1,652
"19",10,"A",1,19,"pos","same","female",1,855
"20",10,"A",1,20,"pos","same","female",1,1275
"21",10,"A",1,21,"neu","diff","female",1,1106
"22",10,"A",1,22,"pos","same","female",1,697
"23",10,"A",1,23,"pos","diff","female",1,829
"24",10,"A",1,24,"neg","diff","female",1,1323
"25",10,"A",1,25,"neu","diff","female",1,1373
"26",10,"A",1,26,"neg","same","female",1,937
"27",10,"A",1,27,"pos","diff","female",1,1037
"28",10,"A",1,28,"neg","same","female",1,932
"29",10,"A",1,29,"pos","same","female",1,648
"30",10,"A",1,30,"neu","diff","female",0,1297
"31",10,"A",1,31,"pos","same","female",1,717
"32",10,"A",1,32,"neg","diff","female",1,820
"33",10,"A",1,33,"neg","diff","female",1,992
"34",10,"A",1,34,"neg","same","female",1,782
"35",10,"A",1,35,"neg","same","female",1,738
"36",10,"A",1,36,"neu","diff","female",1,846
"37",10,"A",1,37,"pos","diff","female",1,751
"38",10,"A",1,38,"pos","diff","female",1,958
"39",10,"A",1,39,"neu","diff","female",1,887
"40",10,"A",1,40,"pos","same","female",1,1297
"41",10,"A",1,41,"neg","diff","female",0,NA
"42",10,"A",1,42,"neu","diff","female",1,1204
"43",10,"A",1,43,"neg","same","female",1,637
"44",10,"A",1,44,"neu","same","female",1,804
"45",10,"A",1,45,"neg","same","female",1,749
"46",10,"A",1,46,"neg","diff","female",1,972
"47",10,"A",1,47,"neg","same","female",1,872
"48",10,"A",1,48,"pos","diff","female",1,973
"49",10,"A",1,49,"pos","diff","female",1,1017
"50",10,"A",1,50,"pos","same","female",1,670
"51",10,"A",1,51,"neg","diff","female",1,780
"52",10,"A",1,52,"pos","same","female",1,704
"53",10,"A",1,53,"neg","same","female",1,724
"54",10,"A",1,54,"pos","same","female",1,621
"55",10,"A",1,55,"neg","same","female",1,785
"56",10,"A",2,1,"pos","same","female",0,NA
"57",10,"A",2,2,"neg","same","female",0,NA
"58",10,"A",2,3,"neu","diff","female",1,818
"59",10,"A",2,4,"neu","diff","female",1,1134
"60",10,"A",2,5,"neu","same","female",1,714
"61",10,"A",2,6,"neu","same","female",0,NA
"62",10,"A",2,7,"neu","same","female",0,NA
"63",10,"A",2,8,"pos","diff","female",0,1037
"64",10,"A",2,9,"pos","diff","female",0,1492
"65",10,"A",2,10,"neu","diff","female",0,NA
"66",10,"A",2,11,"neu","diff","female",0,1224
"67",10,"A",2,12,"neu","same","female",1,948
"68",10,"A",2,13,"neu","same","female",1,715
"69",10,"A",2,14,"neu","same","female",1,1106
"70",10,"A",2,15,"neu","same","female",1,776
"71",10,"A",2,16,"pos","diff","female",1,780
"72",10,"A",2,17,"neg","diff","female",1,736
"73",10,"A",2,18,"neu","diff","female",1,748
"74",10,"A",2,19,"pos","diff","female",1,1019
"75",10,"A",2,20,"neu","same","female",0,783
"76",10,"A",2,21,"pos","same","female",1,579
"77",10,"A",2,22,"neg","diff","female",1,735
"78",10,"A",2,23,"neu","diff","female",1,666
"79",10,"A",2,24,"neg","same","female",1,648
"80",10,"A",2,25,"neu","same","female",1,801
"81",10,"A",2,26,"neg","same","female",1,779
"82",10,"A",2,27,"neg","diff","female",1,703
"83",10,"A",2,28,"pos","diff","female",1,706
"84",10,"A",2,29,"neg","same","female",1,569
"85",10,"A",2,30,"pos","same","female",1,978
"86",10,"A",2,31,"neg","same","female",1,542
"87",10,"A",2,32,"neg","diff","female",1,578
"88",10,"A",2,33,"pos","diff","female",1,654
"89",10,"A",2,34,"neg","same","female",1,458
"90",10,"A",2,35,"pos","same","female",1,382
"91",10,"A",2,36,"neg","same","female",1,657
"92",10,"A",2,37,"pos","same","female",1,429
"93",10,"A",2,38,"neg","same","female",1,540
"94",10,"A",2,39,"pos","same","female",1,496
"95",10,"A",2,40,"neu","diff","female",1,779
"96",10,"A",2,41,"neu","diff","female",1,767
"97",10,"A",2,42,"neg","diff","female",1,769
"98",10,"A",2,43,"neu","same","female",1,754
"99",10,"A",2,44,"neg","same","female",1,769
"100",10,"A",2,45,"neg","diff","female",1,1250
"101",10,"A",2,46,"pos","diff","female",1,675
"102",10,"A",2,47,"pos","diff","female",1,754
"103",10,"A",2,48,"pos","same","female",1,480
"104",10,"A",2,49,"pos","same","female",1,698
"105",10,"A",2,50,"neu","diff","female",1,733
"106",10,"A",2,51,"pos","same","female",1,457
"107",10,"A",2,52,"neu","same","female",1,685
"108",10,"A",2,53,"neu","diff","female",1,766
"109",10,"A",2,54,"pos","diff","female",1,912
"110",10,"A",2,55,"neu","same","female",1,653
"111",10,"A",3,1,"neu","same","female",0,NA
"112",10,"A",3,2,"pos","same","female",0,NA
"113",10,"A",3,3,"neu","same","female",1,770
"114",10,"A",3,4,"pos","same","female",1,691
"115",10,"A",3,5,"pos","diff","female",1,660
"116",10,"A",3,6,"pos","same","female",1,512
"117",10,"A",3,7,"pos","same","female",1,623
"118",10,"A",3,8,"neg","diff","female",1,674
"119",10,"A",3,9,"neu","diff","female",0,945
"120",10,"A",3,10,"pos","diff","female",1,568
"121",10,"A",3,11,"neu","same","female",1,785
"122",10,"A",3,12,"pos","same","female",1,488
"123",10,"A",3,13,"pos","diff","female",1,705
"124",10,"A",3,14,"pos","same","female",1,453
"125",10,"A",3,15,"neu","diff","female",1,648
"126",10,"A",3,16,"pos","same","female",1,466
"127",10,"A",3,17,"neg","diff","female",1,808
"128",10,"A",3,18,"pos","same","female",1,689
"129",10,"A",3,19,"neg","same","female",1,755
"130",10,"A",3,20,"neu","diff","female",1,705
"131",10,"A",3,21,"pos","diff","female",1,1128
"132",10,"A",3,22,"neg","diff","female",0,593
"133",10,"A",3,23,"neg","diff","female",1,528
"134",10,"A",3,24,"neg","same","female",1,673
"135",10,"A",3,25,"neu","diff","female",1,767
"136",10,"A",3,26,"neg","same","female",1,593
"137",10,"A",3,27,"neu","same","female",1,511
"138",10,"A",3,28,"neg","same","female",1,1102
"139",10,"A",3,29,"neu","same","female",1,706
"140",10,"A",3,30,"neu","diff","female",1,904
"141",10,"A",3,31,"pos","diff","female",1,675
"142",10,"A",3,32,"neg","diff","female",1,674
"143",10,"A",3,33,"pos","same","female",1,672
"144",10,"A",3,34,"pos","diff","female",1,687
"145",10,"A",3,35,"pos","same","female",1,448
"146",10,"A",3,36,"neu","diff","female",1,721
"147",10,"A",3,37,"neu","diff","female",1,635
"148",10,"A",3,38,"neu","same","female",1,561
"149",10,"A",3,39,"pos","diff","female",1,1114
"150",10,"A",3,40,"neg","diff","female",1,561
"151",10,"A",3,41,"neu","diff","female",1,1226
"152",10,"A",3,42,"neg","same","female",1,777
"153",10,"A",3,43,"pos","diff","female",1,605
"154",10,"A",3,44,"neg","same","female",1,446
"155",10,"A",3,45,"pos","same","female",1,431
"156",10,"A",3,46,"neg","same","female",1,542
"157",10,"A",3,47,"pos","same","female",1,450
"158",10,"A",3,48,"neg","same","female",1,467
"159",10,"A",3,49,"neg","diff","female",1,729
"160",10,"A",3,50,"neg","same","female",1,435
"161",10,"A",3,51,"neu","diff","female",1,833
"162",10,"A",3,52,"neg","same","female",1,576
"163",10,"A",3,53,"neu","same","female",1,684
"164",10,"A",3,54,"neg","same","female",1,733
"165",10,"A",3,55,"pos","diff","female",1,633
"166",10,"A",4,1,"neg","diff","female",0,NA
"167",10,"A",4,2,"neu","diff","female",0,NA
"168",10,"A",4,3,"neu","diff","female",1,828
"169",10,"A",4,4,"neu","same","female",1,907
"170",10,"A",4,5,"neu","same","female",1,618
"171",10,"A",4,6,"neu","same","female",1,957
"172",10,"A",4,7,"neu","same","female",1,740
"173",10,"A",4,8,"neu","same","female",1,559
"174",10,"A",4,9,"neg","diff","female",1,808
"175",10,"A",4,10,"pos","diff","female",1,753
"176",10,"A",4,11,"pos","diff","female",1,800
"177",10,"A",4,12,"pos","same","female",1,697
"178",10,"A",4,13,"pos","same","female",1,589
"179",10,"A",4,14,"pos","same","female",1,428
"180",10,"A",4,15,"pos","same","female",1,714
"181",10,"A",4,16,"neg","diff","female",1,545
"182",10,"A",4,17,"pos","same","female",1,503
"183",10,"A",4,18,"neu","diff","female",1,867
"184",10,"A",4,19,"neg","diff","female",0,1002
"185",10,"A",4,20,"neu","same","female",1,699
"186",10,"A",4,21,"neg","same","female",1,831
"187",10,"A",4,22,"neu","same","female",1,1086
"188",10,"A",4,23,"pos","diff","female",1,495
"189",10,"A",4,24,"neu","same","female",1,443
"190",10,"A",4,25,"pos","same","female",1,844
"191",10,"A",4,26,"neg","diff","female",1,621
"192",10,"A",4,27,"pos","same","female",1,593
"193",10,"A",4,28,"neu","diff","female",1,768
"194",10,"A",4,29,"pos","same","female",1,497
"195",10,"A",4,30,"neg","diff","female",1,685
"196",10,"A",4,31,"neg","diff","female",1,638
"197",10,"A",4,32,"neg","same","female",0,1127
"198",10,"A",4,33,"neg","same","female",1,945
"199",10,"A",4,34,"neu","diff","female",1,823
"200",10,"A",4,35,"neg","same","female",1,531
"201",10,"A",4,36,"neu","same","female",1,663
"202",10,"A",4,37,"neu","diff","female",1,739
"203",10,"A",4,38,"pos","diff","female",1,959
"204",10,"A",4,39,"neu","same","female",1,904
"205",10,"A",4,40,"neu","diff","female",1,788
"206",10,"A",4,41,"neg","diff","female",1,778
"207",10,"A",4,42,"neu","same","female",1,1006
"208",10,"A",4,43,"pos","diff","female",1,703
"209",10,"A",4,44,"neg","diff","female",1,755
"210",10,"A",4,45,"pos","same","female",1,498
"211",10,"A",4,46,"neu","diff","female",0,654
"212",10,"A",4,47,"pos","same","female",1,569
"213",10,"A",4,48,"neu","same","female",1,995
"214",10,"A",4,49,"pos","same","female",1,417
"215",10,"A",4,50,"neu","same","female",1,685
"216",10,"A",4,51,"neu","diff","female",1,670
"217",10,"A",4,52,"neu","same","female",1,749
"218",10,"A",4,53,"neg","diff","female",1,732
"219",10,"A",4,54,"pos","diff","female",1,695
"220",10,"A",4,55,"pos","diff","female",1,587
"221",10,"A",5,1,"neg","diff","female",0,NA
"222",10,"A",5,2,"pos","diff","female",0,NA
"223",10,"A",5,3,"neu","diff","female",1,817
"224",10,"A",5,4,"neg","diff","female",1,717
"225",10,"A",5,5,"neg","diff","female",1,1059
"226",10,"A",5,6,"neg","same","female",1,1088
"227",10,"A",5,7,"neg","same","female",1,673
"228",10,"A",5,8,"neu","diff","female",1,704
"229",10,"A",5,9,"neg","same","female",1,611
"230",10,"A",5,10,"pos","diff","female",1,743
"231",10,"A",5,11,"pos","diff","female",1,931
"232",10,"A",5,12,"neg","diff","female",1,791
"233",10,"A",5,13,"neg","diff","female",1,734
"234",10,"A",5,14,"neg","same","female",1,618
"235",10,"A",5,15,"neg","same","female",1,638
"236",10,"A",5,16,"neu","diff","female",1,835
"237",10,"A",5,17,"pos","diff","female",1,658
"238",10,"A",5,18,"neu","same","female",1,894
"239",10,"A",5,19,"neg","diff","female",1,666
"240",10,"A",5,20,"neu","same","female",1,728
"241",10,"A",5,21,"neg","same","female",1,881
"242",10,"A",5,22,"neu","same","female",1,731
"243",10,"A",5,23,"neg","same","female",1,663
"244",10,"A",5,24,"neu","same","female",1,467
"245",10,"A",5,25,"neg","same","female",1,601
"246",10,"A",5,26,"neu","same","female",1,666
"247",10,"A",5,27,"neg","same","female",1,553
"248",10,"A",5,28,"pos","diff","female",1,1055
"249",10,"A",5,29,"neu","diff","female",1,891
"250",10,"A",5,30,"neu","diff","female",1,887
"251",10,"A",5,31,"neu","same","female",1,625
"252",10,"A",5,32,"neu","same","female",1,583
"253",10,"A",5,33,"neu","same","female",1,531
"254",10,"A",5,34,"neg","diff","female",1,711
"255",10,"A",5,35,"neg","diff","female",1,782
"256",10,"A",5,36,"pos","diff","female",1,705
"257",10,"A",5,37,"pos","diff","female",1,776
"258",10,"A",5,38,"neu","diff","female",1,796
"259",10,"A",5,39,"pos","same","female",1,611
"260",10,"A",5,40,"neu","same","female",1,580
"261",10,"A",5,41,"neu","diff","female",1,832
"262",10,"A",5,42,"neu","same","female",1,590
"263",10,"A",5,43,"neu","same","female",1,429
"264",10,"A",5,44,"pos","diff","female",1,667
"265",10,"A",5,45,"neg","diff","female",1,570
"266",10,"A",5,46,"neg","diff","female",1,627
"267",10,"A",5,47,"neg","same","female",1,490
"268",10,"A",5,48,"neg","same","female",1,483
"269",10,"A",5,49,"pos","diff","female",1,843
"270",10,"A",5,50,"pos","diff","female",1,812
"271",10,"A",5,51,"neg","diff","female",1,680
"272",10,"A",5,52,"neu","diff","female",1,857
"273",10,"A",5,53,"pos","diff","female",1,653
"274",10,"A",5,54,"pos","diff","female",1,697
"275",10,"A",5,55,"neu","diff","female",1,685
"276",10,"A",6,1,"neg","diff","female",0,NA
"277",10,"A",6,2,"pos","diff","female",0,NA
"278",10,"A",6,3,"neu","diff","female",1,865
"279",10,"A",6,4,"pos","same","female",1,535
"280",10,"A",6,5,"neg","diff","female",1,683
"281",10,"A",6,6,"neu","diff","female",1,604
"282",10,"A",6,7,"neg","same","female",1,750
"283",10,"A",6,8,"neu","same","female",1,588
"284",10,"A",6,9,"neg","same","female",1,619
"285",10,"A",6,10,"neu","same","female",1,559
"286",10,"A",6,11,"neu","diff","female",1,744
"287",10,"A",6,12,"neu","same","female",1,534
"288",10,"A",6,13,"neu","same","female",1,490
"289",10,"A",6,14,"neg","diff","female",1,643
"290",10,"A",6,15,"neu","same","female",1,477
"291",10,"A",6,16,"pos","diff","female",1,835
"292",10,"A",6,17,"neg","diff","female",1,1074
"293",10,"A",6,18,"pos","same","female",1,753
"294",10,"A",6,19,"neg","same","female",1,479
"295",10,"A",6,20,"neu","diff","female",1,744
"296",10,"A",6,21,"pos","diff","female",1,563
"297",10,"A",6,22,"neu","same","female",1,412
"298",10,"A",6,23,"neu","diff","female",1,712
"299",10,"A",6,24,"neg","diff","female",1,671
"300",10,"A",6,25,"neu","same","female",1,381
"301",10,"A",6,26,"pos","diff","female",1,657
"302",10,"A",6,27,"neu","same","female",1,461
"303",10,"A",6,28,"pos","same","female",1,513
"304",10,"A",6,29,"neu","same","female",1,527
"305",10,"A",6,30,"neu","diff","female",1,688
"306",10,"A",6,31,"neu","same","female",1,386
"307",10,"A",6,32,"neu","same","female",1,520
"308",10,"A",6,33,"neu","same","female",1,505
"309",10,"A",6,34,"neu","same","female",1,488
"310",10,"A",6,35,"neu","same","female",1,529
"311",10,"A",6,36,"pos","diff","female",1,466
"312",10,"A",6,37,"neu","same","female",1,457
"313",10,"A",6,38,"pos","same","female",1,540
"314",10,"A",6,39,"neg","diff","female",1,736
"315",10,"A",6,40,"neu","diff","female",1,780
"316",10,"A",6,41,"neu","diff","female",1,624
"317",10,"A",6,42,"neu","same","female",1,468
"318",10,"A",6,43,"neg","diff","female",1,635
"319",10,"A",6,44,"neu","same","female",1,481
"320",10,"A",6,45,"pos","diff","female",1,874
"321",10,"A",6,46,"neg","diff","female",1,865
"322",10,"A",6,47,"neu","diff","female",1,549
"323",10,"A",6,48,"neg","same","female",1,683
"324",10,"A",6,49,"neu","same","female",1,461
"325",10,"A",6,50,"neu","diff","female",0,NA
"326",10,"A",6,51,"neg","diff","female",0,764
"327",10,"A",6,52,"neu","same","female",1,605
"328",10,"A",6,53,"neg","same","female",1,638
"329",10,"A",6,54,"neg","diff","female",1,533
"330",10,"A",6,55,"neu","diff","female",1,744
"331",11,"A",1,1,"neu","same","female",0,NA
"332",11,"A",1,2,"neu","same","female",0,NA
"333",11,"A",1,3,"neu","same","female",0,572
"334",11,"A",1,4,"pos","diff","female",0,NA
"335",11,"A",1,5,"neu","same","female",0,831
"336",11,"A",1,6,"pos","same","female",1,798
"337",11,"A",1,7,"pos","diff","female",1,885
"338",11,"A",1,8,"pos","same","female",1,462
"339",11,"A",1,9,"neu","diff","female",1,1265
"340",11,"A",1,10,"neg","diff","female",1,1128
"341",11,"A",1,11,"neg","diff","female",0,1057
"342",11,"A",1,12,"neg","same","female",1,765
"343",11,"A",1,13,"neg","same","female",1,638
"344",11,"A",1,14,"pos","diff","female",1,647
"345",11,"A",1,15,"neu","diff","female",1,1201
"346",11,"A",1,16,"neu","diff","female",0,NA
"347",11,"A",1,17,"neu","same","female",1,945
"348",11,"A",1,18,"neg","diff","female",1,1336
"349",11,"A",1,19,"neg","diff","female",1,876
"350",11,"A",1,20,"neg","same","female",1,435
"351",11,"A",1,21,"neg","same","female",1,673
"352",11,"A",1,22,"neg","same","female",1,880
"353",11,"A",1,23,"neu","diff","female",1,1033
"354",11,"A",1,24,"neg","same","female",1,784
"355",11,"A",1,25,"neu","same","female",0,724
"356",11,"A",1,26,"neu","diff","female",1,1453
"357",11,"A",1,27,"pos","diff","female",1,793
"358",11,"A",1,28,"neg","diff","female",1,800
"359",11,"A",1,29,"neu","diff","female",1,1049
"360",11,"A",1,30,"neg","same","female",1,498
"361",11,"A",1,31,"neu","same","female",1,702
"362",11,"A",1,32,"neg","same","female",1,498
"363",11,"A",1,33,"neg","diff","female",0,1214
"364",11,"A",1,34,"neg","same","female",0,NA
"365",11,"A",1,35,"pos","diff","female",0,NA
"366",11,"A",1,36,"pos","diff","female",0,NA
"367",11,"A",1,37,"pos","same","female",1,703
"368",11,"A",1,38,"neu","diff","female",1,1123
"369",11,"A",1,39,"neg","diff","female",1,1227
"370",11,"A",1,40,"neg","diff","female",0,906
"371",11,"A",1,41,"neu","diff","female",0,NA
"372",11,"A",1,42,"neg","same","female",0,NA
"373",11,"A",1,43,"neu","same","female",1,839
"374",11,"A",1,44,"pos","diff","female",0,NA
"375",11,"A",1,45,"neu","same","female",0,NA
"376",11,"A",1,46,"pos","same","female",0,NA
"377",11,"A",1,47,"neu","same","female",0,NA
"378",11,"A",1,48,"neg","diff","female",0,NA
"379",11,"A",1,49,"neu","same","female",1,871
"380",11,"A",1,50,"neg","same","female",1,622
"381",11,"A",1,51,"neu","same","female",0,NA
"382",11,"A",1,52,"pos","diff","female",1,1498
"383",11,"A",1,53,"pos","diff","female",1,1262
"384",11,"A",1,54,"pos","same","female",1,482
"385",11,"A",1,55,"neu","diff","female",1,412
"386",11,"A",2,1,"neu","diff","female",0,NA
"387",11,"A",2,2,"pos","diff","female",0,NA
"388",11,"A",2,3,"neu","same","female",1,1202
"389",11,"A",2,4,"neg","diff","female",1,1291
"390",11,"A",2,5,"neg","diff","female",1,1111
"391",11,"A",2,6,"neg","same","female",1,606
"392",11,"A",2,7,"neg","same","female",1,799
"393",11,"A",2,8,"neg","same","female",1,665
"394",11,"A",2,9,"neg","same","female",1,468
"395",11,"A",2,10,"pos","diff","female",1,939
"396",11,"A",2,11,"pos","diff","female",1,895
"397",11,"A",2,12,"neg","diff","female",1,795
"398",11,"A",2,13,"neg","diff","female",1,1185
"399",11,"A",2,14,"neg","same","female",1,584
"400",11,"A",2,15,"pos","diff","female",1,676
"401",11,"A",2,16,"pos","diff","female",1,707
"402",11,"A",2,17,"pos","same","female",1,441
"403",11,"A",2,18,"neg","diff","female",1,602
"404",11,"A",2,19,"pos","same","female",0,652
"405",11,"A",2,20,"neu","diff","female",1,1285
"406",11,"A",2,21,"pos","same","female",0,686
"407",11,"A",2,22,"neu","same","female",0,NA
"408",11,"A",2,23,"pos","same","female",0,727
"409",11,"A",2,24,"neu","same","female",1,896
"410",11,"A",2,25,"pos","same","female",1,1004
"411",11,"A",2,26,"neu","same","female",0,NA
"412",11,"A",2,27,"pos","same","female",0,1235
"413",11,"A",2,28,"pos","diff","female",1,1202
"414",11,"A",2,29,"pos","same","female",1,859
"415",11,"A",2,30,"neu","diff","female",1,799
"416",11,"A",2,31,"neu","diff","female",1,985
"417",11,"A",2,32,"neu","same","female",1,615
"418",11,"A",2,33,"neu","same","female",1,891
"419",11,"A",2,34,"neu","same","female",1,967
"420",11,"A",2,35,"neu","same","female",1,465
"421",11,"A",2,36,"neu","same","female",1,564
"422",11,"A",2,37,"neg","diff","female",1,1070
"423",11,"A",2,38,"neg","diff","female",1,892
"424",11,"A",2,39,"pos","diff","female",1,760
"425",11,"A",2,40,"pos","diff","female",1,969
"426",11,"A",2,41,"neu","diff","female",1,867
"427",11,"A",2,42,"pos","same","female",1,921
"428",11,"A",2,43,"neu","same","female",0,NA
"429",11,"A",2,44,"neg","diff","female",0,NA
"430",11,"A",2,45,"neg","diff","female",0,1201
"431",11,"A",2,46,"pos","diff","female",0,NA
"432",11,"A",2,47,"neg","same","female",0,1266
"433",11,"A",2,48,"pos","same","female",1,889
"434",11,"A",2,49,"neu","diff","female",1,722
"435",11,"A",2,50,"neu","diff","female",0,1499
"436",11,"A",2,51,"neg","diff","female",0,NA
"437",11,"A",2,52,"pos","diff","female",1,1047
"438",11,"A",2,53,"neg","same","female",1,416
"439",11,"A",2,54,"neu","diff","female",1,1020
"440",11,"A",2,55,"neg","same","female",0,NA
"441",11,"A",3,1,"neg","same","female",0,852
"442",11,"A",3,2,"neg","same","female",1,728
"443",11,"A",3,3,"pos","diff","female",1,561
"444",11,"A",3,4,"neg","same","female",1,410
"445",11,"A",3,5,"pos","same","female",1,1011
"446",11,"A",3,6,"neu","diff","female",1,1255
"447",11,"A",3,7,"neg","diff","female",0,1099
"448",11,"A",3,8,"neu","same","female",0,NA
"449",11,"A",3,9,"neg","same","female",1,1253
"450",11,"A",3,10,"neg","diff","female",0,NA
"451",11,"A",3,11,"pos","diff","female",0,NA
"452",11,"A",3,12,"pos","diff","female",0,NA
"453",11,"A",3,13,"pos","same","female",0,NA
"454",11,"A",3,14,"pos","same","female",0,NA
"455",11,"A",3,15,"neu","diff","female",0,NA
"456",11,"A",3,16,"pos","same","female",0,NA
"457",11,"A",3,17,"neu","same","female",0,1213
"458",11,"A",3,18,"neg","diff","female",1,809
"459",11,"A",3,19,"neg","diff","female",0,1250
"460",11,"A",3,20,"neg","same","female",0,NA
"461",11,"A",3,21,"neg","same","female",0,NA
"462",11,"A",3,22,"neg","same","female",0,NA
"463",11,"A",3,23,"neg","same","female",1,457
"464",11,"A",3,24,"neg","same","female",1,476
"465",11,"A",3,25,"pos","diff","female",1,851
"466",11,"A",3,26,"neg","same","female",1,1044
"467",11,"A",3,27,"pos","same","female",1,814
"468",11,"A",3,28,"neu","diff","female",1,841
"469",11,"A",3,29,"neg","diff","female",1,939
"470",11,"A",3,30,"neu","same","female",1,911
"471",11,"A",3,31,"pos","diff","female",1,829
"472",11,"A",3,32,"neu","same","female",1,988
"473",11,"A",3,33,"pos","same","female",1,875
"474",11,"A",3,34,"pos","diff","female",0,NA
"475",11,"A",3,35,"neu","diff","female",0,1113
"476",11,"A",3,36,"neu","diff","female",0,NA
"477",11,"A",3,37,"neg","diff","female",0,NA
"478",11,"A",3,38,"neg","diff","female",0,NA
"479",11,"A",3,39,"neg","same","female",1,645
"480",11,"A",3,40,"neg","same","female",0,NA
"481",11,"A",3,41,"pos","diff","female",0,NA
"482",11,"A",3,42,"neu","diff","female",1,1388
"483",11,"A",3,43,"neu","diff","female",0,NA
"484",11,"A",3,44,"neg","diff","female",1,1252
"485",11,"A",3,45,"neu","same","female",0,NA
"486",11,"A",3,46,"pos","diff","female",1,671
"487",11,"A",3,47,"neg","diff","female",1,1086
"488",11,"A",3,48,"neg","diff","female",1,1199
"489",11,"A",3,49,"neu","diff","female",1,1144
"490",11,"A",3,50,"neg","same","female",1,1255
"491",11,"A",3,51,"neu","same","female",0,NA
"492",11,"A",3,52,"neg","same","female",0,NA
"493",11,"A",3,53,"pos","diff","female",1,1355
"494",11,"A",3,54,"neu","diff","female",0,NA
"495",11,"A",3,55,"neu","diff","female",1,665
"496",11,"A",4,1,"neg","diff","female",0,NA
"497",11,"A",4,2,"neu","diff","female",0,NA
"498",11,"A",4,3,"pos","diff","female",1,1023
"499",11,"A",4,4,"neg","diff","female",1,1491
"500",11,"A",4,5,"pos","same","female",1,839
"501",11,"A",4,6,"pos","diff","female",1,856
"502",11,"A",4,7,"pos","same","female",1,604
"503",11,"A",4,8,"pos","same","female",1,702
"504",11,"A",4,9,"pos","same","female",1,641
"505",11,"A",4,10,"pos","same","female",1,523
"506",11,"A",4,11,"pos","same","female",1,444
"507",11,"A",4,12,"neg","diff","female",1,653
"508",11,"A",4,13,"pos","same","female",1,985
"509",11,"A",4,14,"neg","same","female",0,728
"510",11,"A",4,15,"neu","diff","female",1,913
"511",11,"A",4,16,"neg","same","female",1,479
"512",11,"A",4,17,"neu","same","female",1,1177
"513",11,"A",4,18,"neu","diff","female",1,669
"514",11,"A",4,19,"neg","diff","female",1,923
"515",11,"A",4,20,"neu","same","female",1,861
"516",11,"A",4,21,"pos","diff","female",1,1201
"517",11,"A",4,22,"neu","same","female",1,730
"518",11,"A",4,23,"neu","diff","female",1,1075
"519",11,"A",4,24,"neg","diff","female",1,1138
"520",11,"A",4,25,"neg","diff","female",1,958
"521",11,"A",4,26,"neg","same","female",1,423
"522",11,"A",4,27,"neu","diff","female",1,1043
"523",11,"A",4,28,"pos","diff","female",1,748
"524",11,"A",4,29,"neg","diff","female",1,1339
"525",11,"A",4,30,"pos","same","female",1,847
"526",11,"A",4,31,"pos","diff","female",1,1377
"527",11,"A",4,32,"neg","diff","female",1,1165
"528",11,"A",4,33,"neg","diff","female",1,685
"529",11,"A",4,34,"pos","diff","female",1,894
"530",11,"A",4,35,"pos","diff","female",1,1242
"531",11,"A",4,36,"neg","diff","female",1,732
"532",11,"A",4,37,"pos","same","female",1,1208
"533",11,"A",4,38,"neu","diff","female",1,801
"534",11,"A",4,39,"pos","same","female",1,1386
"535",11,"A",4,40,"pos","diff","female",1,1001
"536",11,"A",4,41,"pos","same","female",1,1195
"537",11,"A",4,42,"neg","diff","female",1,705
"538",11,"A",4,43,"neu","diff","female",1,808
"539",11,"A",4,44,"pos","diff","female",1,769
"540",11,"A",4,45,"neu","same","female",1,1426
"541",11,"A",4,46,"neu","diff","female",0,NA
"542",11,"A",4,47,"neu","same","female",0,NA
"543",11,"A",4,48,"pos","diff","female",1,599
"544",11,"A",4,49,"neg","diff","female",1,713
"545",11,"A",4,50,"neg","diff","female",1,815
"546",11,"A",4,51,"pos","diff","female",1,587
"547",11,"A",4,52,"neg","same","female",1,1002
"548",11,"A",4,53,"neg","diff","female",1,795
"549",11,"A",4,54,"neg","same","female",1,834
"550",11,"A",4,55,"pos","diff","female",1,560
"551",11,"A",5,1,"neg","diff","female",0,NA
"552",11,"A",5,2,"neu","diff","female",0,NA
"553",11,"A",5,3,"neu","diff","female",1,630
"554",11,"A",5,4,"neg","diff","female",1,493
"555",11,"A",5,5,"neu","same","female",1,905
"556",11,"A",5,6,"neg","same","female",1,1303
"557",11,"A",5,7,"neg","diff","female",1,900
"558",11,"A",5,8,"neu","diff","female",1,1264
"559",11,"A",5,9,"neu","diff","female",1,788
"560",11,"A",5,10,"neg","diff","female",1,1178
"561",11,"A",5,11,"neu","same","female",1,1150
"562",11,"A",5,12,"neg","same","female",1,781
"563",11,"A",5,13,"neu","same","female",1,1281
"564",11,"A",5,14,"neg","same","female",0,1051
"565",11,"A",5,15,"neu","same","female",1,1204
"566",11,"A",5,16,"pos","diff","female",1,989
"567",11,"A",5,17,"neg","diff","female",1,1436
"568",11,"A",5,18,"pos","same","female",0,NA
"569",11,"A",5,19,"neu","diff","female",0,NA
"570",11,"A",5,20,"neu","diff","female",1,1079
"571",11,"A",5,21,"neg","diff","female",1,888
"572",11,"A",5,22,"pos","diff","female",1,1025
"573",11,"A",5,23,"neu","diff","female",1,872
"574",11,"A",5,24,"pos","same","female",1,879
"575",11,"A",5,25,"pos","diff","female",1,1112
"576",11,"A",5,26,"pos","same","female",1,655
"577",11,"A",5,27,"neg","diff","female",1,667
"578",11,"A",5,28,"pos","same","female",1,808
"579",11,"A",5,29,"neu","diff","female",1,706
"580",11,"A",5,30,"pos","same","female",1,1049
"581",11,"A",5,31,"neu","same","female",1,1058
"582",11,"A",5,32,"pos","same","female",1,1086
"583",11,"A",5,33,"neg","diff","female",0,NA
"584",11,"A",5,34,"pos","same","female",1,1093
"585",11,"A",5,35,"neu","diff","female",0,NA
"586",11,"A",5,36,"pos","same","female",1,848
"587",11,"A",5,37,"neg","diff","female",1,817
"588",11,"A",5,38,"pos","same","female",1,941
"589",11,"A",5,39,"neg","same","female",1,673
"590",11,"A",5,40,"neu","diff","female",1,592
"591",11,"A",5,41,"pos","diff","female",1,990
"592",11,"A",5,42,"neu","same","female",1,989
"593",11,"A",5,43,"pos","same","female",1,1356
"594",11,"A",5,44,"neg","diff","female",1,899
"595",11,"A",5,45,"neu","diff","female",1,1310
"596",11,"A",5,46,"neu","diff","female",0,NA
"597",11,"A",5,47,"pos","diff","female",1,1307
"598",11,"A",5,48,"pos","diff","female",1,1338
"599",11,"A",5,49,"pos","same","female",1,414
"600",11,"A",5,50,"pos","same","female",1,842
"601",11,"A",5,51,"neg","diff","female",1,667
"602",11,"A",5,52,"pos","same","female",1,1066
"603",11,"A",5,53,"neg","same","female",1,1433
"604",11,"A",5,54,"pos","same","female",1,639
"605",11,"A",5,55,"neg","same","female",0,NA
"606",11,"A",6,1,"neg","same","female",0,912
"607",11,"A",6,2,"pos","same","female",0,910
"608",11,"A",6,3,"neu","diff","female",0,NA
"609",11,"A",6,4,"pos","same","female",0,NA
"610",11,"A",6,5,"pos","diff","female",0,NA
"611",11,"A",6,6,"neu","diff","female",0,NA
"612",11,"A",6,7,"pos","same","female",1,519
"613",11,"A",6,8,"neu","same","female",1,1240
"614",11,"A",6,9,"pos","same","female",1,666
"615",11,"A",6,10,"neg","diff","female",1,1368
"616",11,"A",6,11,"neg","diff","female",1,1490
"617",11,"A",6,12,"neu","diff","female",1,1043
"618",11,"A",6,13,"neu","diff","female",1,1101
"619",11,"A",6,14,"neu","same","female",1,801
"620",11,"A",6,15,"neg","diff","female",1,714
"621",11,"A",6,16,"pos","diff","female",1,1152
"622",11,"A",6,17,"neg","same","female",1,399
"623",11,"A",6,18,"neg","diff","female",1,968
"624",11,"A",6,19,"pos","diff","female",1,786
"625",11,"A",6,20,"pos","diff","female",1,728
"626",11,"A",6,21,"pos","same","female",1,593
"627",11,"A",6,22,"pos","same","female",1,592
"628",11,"A",6,23,"pos","same","female",1,463
"629",11,"A",6,24,"neg","diff","female",1,578
"630",11,"A",6,25,"pos","same","female",1,430
"631",11,"A",6,26,"neg","same","female",1,397
"632",11,"A",6,27,"pos","same","female",1,835
"633",11,"A",6,28,"pos","diff","female",0,962
"634",11,"A",6,29,"neu","diff","female",1,507
"635",11,"A",6,30,"pos","same","female",1,1034
"636",11,"A",6,31,"neu","same","female",1,720
"637",11,"A",6,32,"neu","diff","female",0,NA
"638",11,"A",6,33,"neu","same","female",0,NA
"639",11,"A",6,34,"neg","diff","female",0,870
"640",11,"A",6,35,"pos","diff","female",0,NA
"641",11,"A",6,36,"pos","diff","female",0,NA
"642",11,"A",6,37,"neg","diff","female",1,569
"643",11,"A",6,38,"pos","same","female",1,1074
"644",11,"A",6,39,"neu","diff","female",1,689
"645",11,"A",6,40,"pos","same","female",1,962
"646",11,"A",6,41,"pos","diff","female",1,844
"647",11,"A",6,42,"pos","same","female",1,717
"648",11,"A",6,43,"neg","diff","female",1,660
"649",11,"A",6,44,"neg","diff","female",1,688
"650",11,"A",6,45,"neu","diff","female",1,769
"651",11,"A",6,46,"neu","diff","female",1,946
"652",11,"A",6,47,"neu","same","female",1,537
"653",11,"A",6,48,"pos","diff","female",1,573
"654",11,"A",6,49,"pos","diff","female",1,632
"655",11,"A",6,50,"pos","same","female",1,415
"656",11,"A",6,51,"neg","diff","female",1,587
"657",11,"A",6,52,"neu","diff","female",1,969
"658",11,"A",6,53,"neg","same","female",1,435
"659",11,"A",6,54,"neu","same","female",1,513
"660",11,"A",6,55,"neg","same","female",1,704
"661",12,"A",1,1,"neg","same","female",0,827
"662",12,"A",1,2,"neg","same","female",0,NA
"663",12,"A",1,3,"neg","same","female",0,NA
"664",12,"A",1,4,"pos","diff","female",1,1258
"665",12,"A",1,5,"neu","diff","female",1,639
"666",12,"A",1,6,"neg","diff","female",1,920
"667",12,"A",1,7,"pos","diff","female",1,937
"668",12,"A",1,8,"pos","diff","female",1,557
"669",12,"A",1,9,"neg","diff","female",1,644
"670",12,"A",1,10,"neu","diff","female",1,765
"671",12,"A",1,11,"pos","diff","female",0,558
"672",12,"A",1,12,"neu","same","female",1,567
"673",12,"A",1,13,"neg","diff","female",1,480
"674",12,"A",1,14,"neg","diff","female",0,1082
"675",12,"A",1,15,"neg","same","female",0,1147
"676",12,"A",1,16,"neg","same","female",1,874
"677",12,"A",1,17,"neg","same","female",1,640
"678",12,"A",1,18,"pos","diff","female",0,NA
"679",12,"A",1,19,"neg","same","female",0,NA
"680",12,"A",1,20,"neg","diff","female",1,984
"681",12,"A",1,21,"neu","diff","female",1,900
"682",12,"A",1,22,"neu","diff","female",0,NA
"683",12,"A",1,23,"neu","same","female",0,1207
"684",12,"A",1,24,"neg","diff","female",0,NA
"685",12,"A",1,25,"neg","diff","female",0,NA
"686",12,"A",1,26,"pos","diff","female",0,NA
"687",12,"A",1,27,"pos","diff","female",1,1065
"688",12,"A",1,28,"neg","diff","female",1,775
"689",12,"A",1,29,"neu","diff","female",1,699
"690",12,"A",1,30,"neu","diff","female",1,559
"691",12,"A",1,31,"neu","same","female",1,504
"692",12,"A",1,32,"neu","same","female",1,503
"693",12,"A",1,33,"neg","diff","female",1,835
"694",12,"A",1,34,"neu","same","female",1,561
"695",12,"A",1,35,"neg","same","female",0,NA
"696",12,"A",1,36,"neu","same","female",0,NA
"697",12,"A",1,37,"pos","diff","female",1,1404
"698",12,"A",1,38,"neu","same","female",1,1197
"699",12,"A",1,39,"pos","same","female",0,1044
"700",12,"A",1,40,"neu","same","female",1,526
"701",12,"A",1,41,"pos","same","female",1,655
"702",12,"A",1,42,"neg","diff","female",1,459
"703",12,"A",1,43,"pos","same","female",1,638
"704",12,"A",1,44,"neu","diff","female",1,632
"705",12,"A",1,45,"neg","diff","female",1,558
"706",12,"A",1,46,"neu","same","female",1,551
"707",12,"A",1,47,"neg","same","female",1,878
"708",12,"A",1,48,"neu","same","female",1,485
"709",12,"A",1,49,"neg","same","female",1,638
"710",12,"A",1,50,"neu","same","female",1,484
"711",12,"A",1,51,"pos","diff","female",1,733
"712",12,"A",1,52,"neu","same","female",0,793
"713",12,"A",1,53,"pos","same","female",1,576
"714",12,"A",1,54,"pos","diff","female",1,764
"715",12,"A",1,55,"pos","same","female",1,637
"716",12,"A",2,1,"pos","same","female",0,NA
"717",12,"A",2,2,"pos","same","female",0,NA
"718",12,"A",2,3,"neg","diff","female",1,488
"719",12,"A",2,4,"neg","diff","female",0,NA
"720",12,"A",2,5,"neu","diff","female",1,1330
"721",12,"A",2,6,"neg","same","female",1,915
"722",12,"A",2,7,"neu","same","female",1,482
"723",12,"A",2,8,"neg","same","female",0,NA
"724",12,"A",2,9,"neu","same","female",0,NA
"725",12,"A",2,10,"neu","diff","female",1,1271
"726",12,"A",2,11,"neu","same","female",1,606
"727",12,"A",2,12,"neu","same","female",1,543
"728",12,"A",2,13,"neu","same","female",1,739
"729",12,"A",2,14,"pos","diff","female",1,687
"730",12,"A",2,15,"neu","same","female",1,912
"731",12,"A",2,16,"pos","same","female",1,463
"732",12,"A",2,17,"pos","diff","female",1,739
"733",12,"A",2,18,"pos","same","female",1,431
"734",12,"A",2,19,"neu","diff","female",1,765
"735",12,"A",2,20,"neg","diff","female",1,622
"736",12,"A",2,21,"neg","diff","female",1,610
"737",12,"A",2,22,"neg","same","female",0,579
"738",12,"A",2,23,"pos","diff","female",1,735
"739",12,"A",2,24,"neg","same","female",1,491
"740",12,"A",2,25,"pos","same","female",1,420
"741",12,"A",2,26,"neu","diff","female",1,512
"742",12,"A",2,27,"pos","same","female",1,527
"743",12,"A",2,28,"neg","diff","female",1,672
"744",12,"A",2,29,"pos","same","female",1,1454
"745",12,"A",2,30,"neg","same","female",0,1403
"746",12,"A",2,31,"pos","same","female",1,892
"747",12,"A",2,32,"neu","diff","female",1,1144
"748",12,"A",2,33,"pos","same","female",0,NA
"749",12,"A",2,34,"neu","same","female",0,NA
"750",12,"A",2,35,"neu","diff","female",1,913
"751",12,"A",2,36,"neg","diff","female",1,1280
"752",12,"A",2,37,"neg","diff","female",0,NA
"753",12,"A",2,38,"neg","same","female",0,NA
"754",12,"A",2,39,"pos","diff","female",0,NA
"755",12,"A",2,40,"neu","diff","female",1,975
"756",12,"A",2,41,"neu","diff","female",1,1179
"757",12,"A",2,42,"neu","same","female",0,NA
"758",12,"A",2,43,"neu","same","female",0,1174
"759",12,"A",2,44,"pos","diff","female",1,842
"760",12,"A",2,45,"neu","same","female",1,507
"761",12,"A",2,46,"neg","diff","female",1,1482
"762",12,"A",2,47,"pos","diff","female",0,459
"763",12,"A",2,48,"neu","diff","female",1,591
"764",12,"A",2,49,"neu","diff","female",1,1422
"765",12,"A",2,50,"neu","same","female",1,562
"766",12,"A",2,51,"neu","same","female",1,699
"767",12,"A",2,52,"neu","same","female",1,543
"768",12,"A",2,53,"neu","same","female",1,643
"769",12,"A",2,54,"neu","same","female",1,460
"770",12,"A",2,55,"neg","diff","female",0,NA
"771",12,"A",3,1,"neu","diff","female",0,913
"772",12,"A",3,2,"neu","diff","female",1,1232
"773",12,"A",3,3,"neg","diff","female",1,719
"774",12,"A",3,4,"neu","same","female",1,1432
"775",12,"A",3,5,"neg","same","female",1,863
"776",12,"A",3,6,"neu","same","female",1,947
"777",12,"A",3,7,"neu","diff","female",0,NA
"778",12,"A",3,8,"pos","diff","female",0,NA
"779",12,"A",3,9,"neg","diff","female",0,NA
"780",12,"A",3,10,"neu","diff","female",0,1399
"781",12,"A",3,11,"pos","diff","female",1,713
"782",12,"A",3,12,"neu","same","female",1,383
"783",12,"A",3,13,"neu","diff","female",1,723
"784",12,"A",3,14,"pos","diff","female",1,844
"785",12,"A",3,15,"neg","diff","female",1,1198
"786",12,"A",3,16,"pos","same","female",0,NA
"787",12,"A",3,17,"neu","diff","female",0,NA
"788",12,"A",3,18,"pos","same","female",1,1427
"789",12,"A",3,19,"neg","diff","female",1,922
"790",12,"A",3,20,"neg","diff","female",1,1323
"791",12,"A",3,21,"neu","diff","female",1,637
"792",12,"A",3,22,"neg","same","female",1,627
"793",12,"A",3,23,"neu","same","female",1,1098
"794",12,"A",3,24,"neg","same","female",1,1246
"795",12,"A",3,25,"neg","diff","female",1,767
"796",12,"A",3,26,"neg","same","female",1,465
"797",12,"A",3,27,"neg","same","female",1,772
"798",12,"A",3,28,"neg","same","female",1,472
"799",12,"A",3,29,"neg","same","female",1,671
"800",12,"A",3,30,"neg","same","female",1,557
"801",12,"A",3,31,"pos","diff","female",1,1124
"802",12,"A",3,32,"neu","diff","female",1,1357
"803",12,"A",3,33,"pos","same","female",1,516
"804",12,"A",3,34,"neu","same","female",1,787
"805",12,"A",3,35,"neu","diff","female",1,1193
"806",12,"A",3,36,"neg","diff","female",1,864
"807",12,"A",3,37,"neu","same","female",1,580
"808",12,"A",3,38,"neg","same","female",1,672
"809",12,"A",3,39,"neu","same","female",1,445
"810",12,"A",3,40,"neu","diff","female",1,1086
"811",12,"A",3,41,"neg","diff","female",1,672
"812",12,"A",3,42,"neg","diff","female",1,766
"813",12,"A",3,43,"neu","diff","female",1,976
"814",12,"A",3,44,"neg","same","female",1,972
"815",12,"A",3,45,"pos","diff","female",1,776
"816",12,"A",3,46,"neg","same","female",1,892
"817",12,"A",3,47,"neu","diff","female",1,632
"818",12,"A",3,48,"neu","diff","female",1,718
"819",12,"A",3,49,"neg","diff","female",1,967
"820",12,"A",3,50,"neg","diff","female",1,785
"821",12,"A",3,51,"neu","diff","female",1,1047
"822",12,"A",3,52,"neg","same","female",1,673
"823",12,"A",3,53,"neu","same","female",1,1199
"824",12,"A",3,54,"neu","diff","female",1,921
"825",12,"A",3,55,"neu","same","female",1,458
"826",12,"A",4,1,"neg","same","female",0,NA
"827",12,"A",4,2,"neg","same","female",0,NA
"828",12,"A",4,3,"pos","diff","female",1,606
"829",12,"A",4,4,"neu","diff","female",1,1168
"830",12,"A",4,5,"neu","diff","female",0,497
"831",12,"A",4,6,"pos","diff","female",1,861
"832",12,"A",4,7,"neu","same","female",1,881
"833",12,"A",4,8,"pos","same","female",1,1257
"834",12,"A",4,9,"neu","same","female",1,1213
"835",12,"A",4,10,"neg","diff","female",1,809
"836",12,"A",4,11,"neu","same","female",1,467
"837",12,"A",4,12,"neg","same","female",1,1257
"838",12,"A",4,13,"neu","same","female",1,493
"839",12,"A",4,14,"pos","diff","female",1,713
"840",12,"A",4,15,"neu","same","female",1,512
"841",12,"A",4,16,"neu","diff","female",1,542
"842",12,"A",4,17,"neg","diff","female",1,978
"843",12,"A",4,18,"pos","diff","female",1,654
"844",12,"A",4,19,"neg","same","female",1,554
"845",12,"A",4,20,"neg","diff","female",1,688
"846",12,"A",4,21,"pos","diff","female",1,625
"847",12,"A",4,22,"pos","diff","female",1,1032
"848",12,"A",4,23,"pos","same","female",1,431
"849",12,"A",4,24,"neu","diff","female",1,669
"850",12,"A",4,25,"neu","diff","female",1,636
"851",12,"A",4,26,"neg","diff","female",1,642
"852",12,"A",4,27,"neg","diff","female",1,652
"853",12,"A",4,28,"neu","diff","female",1,855
"854",12,"A",4,29,"neg","same","female",1,1179
"855",12,"A",4,30,"neu","same","female",1,527
"856",12,"A",4,31,"neg","same","female",1,449
"857",12,"A",4,32,"neg","diff","female",1,850
"858",12,"A",4,33,"pos","diff","female",1,787
"859",12,"A",4,34,"neg","same","female",1,538
"860",12,"A",4,35,"pos","same","female",1,990
"861",12,"A",4,36,"neu","diff","female",1,652
"862",12,"A",4,37,"pos","same","female",1,872
"863",12,"A",4,38,"neg","diff","female",0,NA
"864",12,"A",4,39,"neu","diff","female",0,1429
"865",12,"A",4,40,"pos","diff","female",0,NA
"866",12,"A",4,41,"neu","same","female",1,963
"867",12,"A",4,42,"pos","same","female",1,700
"868",12,"A",4,43,"pos","diff","female",1,1392
"869",12,"A",4,44,"pos","same","female",1,751
"870",12,"A",4,45,"pos","same","female",1,525
"871",12,"A",4,46,"neg","diff","female",1,735
"872",12,"A",4,47,"pos","same","female",1,922
"873",12,"A",4,48,"neu","diff","female",1,828
"874",12,"A",4,49,"neu","diff","female",1,1002
"875",12,"A",4,50,"pos","diff","female",1,1100
"876",12,"A",4,51,"neu","same","female",1,512
"877",12,"A",4,52,"pos","same","female",1,558
"878",12,"A",4,53,"pos","diff","female",1,663
"879",12,"A",4,54,"pos","same","female",1,371
"880",12,"A",4,55,"pos","same","female",1,455
"881",12,"A",5,1,"neu","same","female",0,NA
"882",12,"A",5,2,"neg","same","female",0,NA
"883",12,"A",5,3,"neu","same","female",1,1286
"884",12,"A",5,4,"neg","same","female",1,944
"885",12,"A",5,5,"neg","diff","female",1,708
"886",12,"A",5,6,"neu","diff","female",1,682
"887",12,"A",5,7,"neg","same","female",1,427
"888",12,"A",5,8,"neg","diff","female",1,1002
"889",12,"A",5,9,"neg","same","female",1,507
"890",12,"A",5,10,"pos","diff","female",1,858
"891",12,"A",5,11,"pos","diff","female",1,1069
"892",12,"A",5,12,"neg","diff","female",1,699
"893",12,"A",5,13,"neg","diff","female",1,735
"894",12,"A",5,14,"neg","same","female",1,731
"895",12,"A",5,15,"neg","same","female",1,759
"896",12,"A",5,16,"neg","same","female",1,600
"897",12,"A",5,17,"neg","same","female",1,554
"898",12,"A",5,18,"neg","same","female",1,432
"899",12,"A",5,19,"neg","same","female",1,511
"900",12,"A",5,20,"neu","diff","female",1,781
"901",12,"A",5,21,"neu","diff","female",1,737
"902",12,"A",5,22,"pos","diff","female",1,669
"903",12,"A",5,23,"neu","same","female",1,987
"904",12,"A",5,24,"neg","diff","female",1,762
"905",12,"A",5,25,"neu","same","female",1,731
"906",12,"A",5,26,"neg","same","female",1,439
"907",12,"A",5,27,"neu","same","female",1,648
"908",12,"A",5,28,"pos","diff","female",1,754
"909",12,"A",5,29,"neu","same","female",1,768
"910",12,"A",5,30,"neg","diff","female",1,593
"911",12,"A",5,31,"neu","same","female",1,784
"912",12,"A",5,32,"neu","diff","female",1,596
"913",12,"A",5,33,"neu","same","female",1,514
"914",12,"A",5,34,"neu","same","female",1,513
"915",12,"A",5,35,"pos","diff","female",1,783
"916",12,"A",5,36,"neu","same","female",1,947
"917",12,"A",5,37,"neg","diff","female",1,762
"918",12,"A",5,38,"pos","diff","female",0,NA
"919",12,"A",5,39,"neg","same","female",0,NA
"920",12,"A",5,40,"neu","diff","female",0,NA
"921",12,"A",5,41,"neg","same","female",0,NA
"922",12,"A",5,42,"neu","same","female",1,849
"923",12,"A",5,43,"neg","same","female",1,690
"924",12,"A",5,44,"neg","diff","female",1,579
"925",12,"A",5,45,"neg","same","female",1,510
"926",12,"A",5,46,"neg","same","female",1,557
"927",12,"A",5,47,"neg","same","female",1,403
"928",12,"A",5,48,"neg","same","female",1,508
"929",12,"A",5,49,"neg","same","female",1,395
"930",12,"A",5,50,"neg","same","female",1,401
"931",12,"A",5,51,"neg","same","female",1,394
"932",12,"A",5,52,"neg","same","female",1,513
"933",12,"A",5,53,"neg","same","female",1,479
"934",12,"A",5,54,"neg","same","female",1,457
"935",12,"A",5,55,"pos","diff","female",1,940
"936",12,"A",6,1,"pos","diff","female",0,NA
"937",12,"A",6,2,"neu","diff","female",0,NA
"938",12,"A",6,3,"neu","diff","female",1,1376
"939",12,"A",6,4,"pos","diff","female",1,812
"940",12,"A",6,5,"neg","diff","female",1,757
"941",12,"A",6,6,"neu","diff","female",1,532
"942",12,"A",6,7,"neg","same","female",1,853
"943",12,"A",6,8,"neg","diff","female",1,601
"944",12,"A",6,9,"neg","same","female",1,538
"945",12,"A",6,10,"neg","same","female",1,574
"946",12,"A",6,11,"neu","diff","female",1,666
"947",12,"A",6,12,"neu","diff","female",1,631
"948",12,"A",6,13,"neu","same","female",1,414
"949",12,"A",6,14,"neu","same","female",1,393
"950",12,"A",6,15,"pos","diff","female",1,688
"951",12,"A",6,16,"neu","same","female",1,449
"952",12,"A",6,17,"pos","same","female",1,1410
"953",12,"A",6,18,"pos","diff","female",1,644
"954",12,"A",6,19,"pos","same","female",1,445
"955",12,"A",6,20,"neg","diff","female",1,702
"956",12,"A",6,21,"pos","same","female",1,482
"957",12,"A",6,22,"neg","same","female",1,1115
"958",12,"A",6,23,"neg","diff","female",1,882
"959",12,"A",6,24,"neu","diff","female",1,779
"960",12,"A",6,25,"pos","diff","female",1,703
"961",12,"A",6,26,"pos","diff","female",1,979
"962",12,"A",6,27,"pos","same","female",1,687
"963",12,"A",6,28,"neg","diff","female",1,624
"964",12,"A",6,29,"neu","diff","female",1,612
"965",12,"A",6,30,"neu","diff","female",1,1064
"966",12,"A",6,31,"neu","same","female",1,516
"967",12,"A",6,32,"neu","same","female",1,435
"968",12,"A",6,33,"neu","same","female",1,577
"969",12,"A",6,34,"pos","diff","female",1,1053
"970",12,"A",6,35,"neu","same","female",1,537
"971",12,"A",6,36,"neg","diff","female",1,605
"972",12,"A",6,37,"neg","diff","female",1,878
"973",12,"A",6,38,"neg","same","female",1,501
"974",12,"A",6,39,"neg","same","female",1,720
"975",12,"A",6,40,"neg","same","female",1,538
"976",12,"A",6,41,"neu","diff","female",1,686
"977",12,"A",6,42,"pos","diff","female",1,1103
"978",12,"A",6,43,"neu","same","female",1,611
"979",12,"A",6,44,"neg","diff","female",1,579
"980",12,"A",6,45,"pos","diff","female",1,751
"981",12,"A",6,46,"neg","same","female",1,1245
"982",12,"A",6,47,"pos","same","female",0,NA
"983",12,"A",6,48,"pos","diff","female",0,NA
"984",12,"A",6,49,"pos","same","female",0,1103
"985",12,"A",6,50,"pos","same","female",1,467
"986",12,"A",6,51,"neg","diff","female",1,681
"987",12,"A",6,52,"pos","same","female",0,1402
"988",12,"A",6,53,"neg","same","female",1,1388
"989",12,"A",6,54,"pos","same","female",0,1339
"990",12,"A",6,55,"neu","diff","female",1,1071
"991",13,"A",1,1,"pos","same","female",0,NA
"992",13,"A",1,2,"neu","same","female",0,NA
"993",13,"A",1,3,"pos","same","female",1,588
"994",13,"A",1,4,"neg","diff","female",1,1070
"995",13,"A",1,5,"pos","same","female",1,1069
"996",13,"A",1,6,"neu","diff","female",1,1227
"997",13,"A",1,7,"neu","diff","female",1,1299
"998",13,"A",1,8,"neu","same","female",1,696
"999",13,"A",1,9,"pos","diff","female",1,790
"1000",13,"A",1,10,"neu","same","female",1,896
"1001",13,"A",1,11,"neg","diff","female",1,694
"1002",13,"A",1,12,"pos","diff","female",1,692
"1003",13,"A",1,13,"neg","same","female",1,1186
"1004",13,"A",1,14,"neg","diff","female",1,907
"1005",13,"A",1,15,"neu","diff","female",1,976
"1006",13,"A",1,16,"neu","diff","female",1,707
"1007",13,"A",1,17,"neg","diff","female",1,1184
"1008",13,"A",1,18,"neu","same","female",1,1162
"1009",13,"A",1,19,"neg","same","female",1,885
"1010",13,"A",1,20,"neu","same","female",0,794
"1011",13,"A",1,21,"neg","same","female",1,724
"1012",13,"A",1,22,"pos","diff","female",1,897
"1013",13,"A",1,23,"neu","diff","female",0,1478
"1014",13,"A",1,24,"pos","same","female",1,821
"1015",13,"A",1,25,"neu","same","female",1,685
"1016",13,"A",1,26,"pos","same","female",1,1018
"1017",13,"A",1,27,"pos","diff","female",1,794
"1018",13,"A",1,28,"neu","diff","female",1,628
"1019",13,"A",1,29,"pos","same","female",1,917
"1020",13,"A",1,30,"neu","same","female",1,1097
"1021",13,"A",1,31,"pos","same","female",1,887
"1022",13,"A",1,32,"neu","same","female",1,557
"1023",13,"A",1,33,"pos","same","female",1,864
"1024",13,"A",1,34,"neu","same","female",1,503
"1025",13,"A",1,35,"pos","same","female",1,684
"1026",13,"A",1,36,"neu","same","female",1,826
"1027",13,"A",1,37,"neg","diff","female",1,931
"1028",13,"A",1,38,"neu","same","female",1,583
"1029",13,"A",1,39,"neg","same","female",1,713
"1030",13,"A",1,40,"neg","diff","female",1,1110
"1031",13,"A",1,41,"pos","diff","female",1,979
"1032",13,"A",1,42,"neu","diff","female",1,1126
"1033",13,"A",1,43,"pos","same","female",1,834
"1034",13,"A",1,44,"pos","diff","female",1,826
"1035",13,"A",1,45,"neg","diff","female",1,946
"1036",13,"A",1,46,"neu","diff","female",1,982
"1037",13,"A",1,47,"neg","same","female",1,648
"1038",13,"A",1,48,"pos","diff","female",1,920
"1039",13,"A",1,49,"neu","diff","female",1,1084
"1040",13,"A",1,50,"neu","diff","female",1,794
"1041",13,"A",1,51,"neu","same","female",1,788
"1042",13,"A",1,52,"neu","same","female",1,622
"1043",13,"A",1,53,"neg","diff","female",1,798
"1044",13,"A",1,54,"neu","same","female",1,1032
"1045",13,"A",1,55,"neg","same","female",1,472
"1046",13,"A",2,1,"neg","same","female",0,NA
"1047",13,"A",2,2,"pos","same","female",0,NA
"1048",13,"A",2,3,"neg","same","female",1,827
"1049",13,"A",2,4,"pos","same","female",1,659
"1050",13,"A",2,5,"pos","diff","female",0,NA
"1051",13,"A",2,6,"neu","diff","female",1,812
"1052",13,"A",2,7,"pos","same","female",1,741
"1053",13,"A",2,8,"neu","same","female",1,641
"1054",13,"A",2,9,"pos","same","female",1,688
"1055",13,"A",2,10,"pos","diff","female",1,894
"1056",13,"A",2,11,"neu","diff","female",1,820
"1057",13,"A",2,12,"neu","diff","female",1,861
"1058",13,"A",2,13,"neg","diff","female",1,1332
"1059",13,"A",2,14,"neu","same","female",1,520
"1060",13,"A",2,15,"pos","diff","female",1,1053
"1061",13,"A",2,16,"pos","diff","female",1,956
"1062",13,"A",2,17,"pos","same","female",1,543
"1063",13,"A",2,18,"neg","diff","female",1,595
"1064",13,"A",2,19,"neg","diff","female",1,917
"1065",13,"A",2,20,"neu","diff","female",1,985
"1066",13,"A",2,21,"pos","diff","female",1,779
"1067",13,"A",2,22,"neu","same","female",1,677
"1068",13,"A",2,23,"neu","diff","female",1,804
"1069",13,"A",2,24,"neg","diff","female",1,973
"1070",13,"A",2,25,"neu","same","female",1,559
"1071",13,"A",2,26,"neu","diff","female",1,1251
"1072",13,"A",2,27,"neg","diff","female",1,745
"1073",13,"A",2,28,"neg","diff","female",1,757
"1074",13,"A",2,29,"pos","diff","female",1,704
"1075",13,"A",2,30,"pos","diff","female",0,NA
"1076",13,"A",2,31,"neu","diff","female",0,NA
"1077",13,"A",2,32,"pos","same","female",1,921
"1078",13,"A",2,33,"neu","same","female",1,1085
"1079",13,"A",2,34,"pos","same","female",1,443
"1080",13,"A",2,35,"neu","same","female",1,515
"1081",13,"A",2,36,"pos","same","female",1,632
"1082",13,"A",2,37,"neu","same","female",1,712
"1083",13,"A",2,38,"neu","diff","female",1,1221
"1084",13,"A",2,39,"neu","same","female",1,701
"1085",13,"A",2,40,"neu","same","female",1,570
"1086",13,"A",2,41,"neu","same","female",1,685
"1087",13,"A",2,42,"neu","same","female",1,747
"1088",13,"A",2,43,"neu","same","female",1,839
"1089",13,"A",2,44,"neu","same","female",1,734
"1090",13,"A",2,45,"neu","same","female",1,986
"1091",13,"A",2,46,"neu","same","female",1,1068
"1092",13,"A",2,47,"pos","diff","female",1,1002
"1093",13,"A",2,48,"neg","diff","female",1,636
"1094",13,"A",2,49,"neg","diff","female",1,939
"1095",13,"A",2,50,"pos","diff","female",1,815
"1096",13,"A",2,51,"neu","diff","female",1,760
"1097",13,"A",2,52,"neg","diff","female",1,819
"1098",13,"A",2,53,"pos","diff","female",1,811
"1099",13,"A",2,54,"neg","same","female",1,949
"1100",13,"A",2,55,"pos","same","female",1,1176
"1101",13,"A",3,1,"pos","same","female",0,NA
"1102",13,"A",3,2,"neu","same","female",0,NA
"1103",13,"A",3,3,"neu","diff","female",1,802
"1104",13,"A",3,4,"neu","same","female",1,555
"1105",13,"A",3,5,"neu","same","female",1,1022
"1106",13,"A",3,6,"neu","same","female",1,559
"1107",13,"A",3,7,"pos","diff","female",1,674
"1108",13,"A",3,8,"neu","same","female",1,593
"1109",13,"A",3,9,"neg","diff","female",1,819
"1110",13,"A",3,10,"neu","same","female",1,619
"1111",13,"A",3,11,"pos","diff","female",1,812
"1112",13,"A",3,12,"neu","same","female",1,1013
"1113",13,"A",3,13,"pos","same","female",1,774
"1114",13,"A",3,14,"neu","same","female",1,960
"1115",13,"A",3,15,"neg","diff","female",1,579
"1116",13,"A",3,16,"neu","same","female",1,470
"1117",13,"A",3,17,"neu","diff","female",1,1069
"1118",13,"A",3,18,"neu","same","female",1,683
"1119",13,"A",3,19,"neu","same","female",1,441
"1120",13,"A",3,20,"pos","diff","female",1,769
"1121",13,"A",3,21,"neu","same","female",1,667
"1122",13,"A",3,22,"neg","diff","female",1,666
"1123",13,"A",3,23,"pos","diff","female",1,905
"1124",13,"A",3,24,"neg","same","female",1,990
"1125",13,"A",3,25,"neg","diff","female",1,735
"1126",13,"A",3,26,"neu","diff","female",1,763
"1127",13,"A",3,27,"neg","same","female",1,630
"1128",13,"A",3,28,"neg","diff","female",1,887
"1129",13,"A",3,29,"neg","same","female",1,813
"1130",13,"A",3,30,"pos","diff","female",1,838
"1131",13,"A",3,31,"neu","diff","female",1,829
"1132",13,"A",3,32,"neu","diff","female",1,1141
"1133",13,"A",3,33,"neu","same","female",1,529
"1134",13,"A",3,34,"neu","same","female",1,502
"1135",13,"A",3,35,"neu","same","female",1,459
"1136",13,"A",3,36,"neu","same","female",1,498
"1137",13,"A",3,37,"neu","same","female",1,440
"1138",13,"A",3,38,"neu","same","female",1,528
"1139",13,"A",3,39,"pos","diff","female",1,692
"1140",13,"A",3,40,"pos","diff","female",1,626
"1141",13,"A",3,41,"pos","same","female",1,435
"1142",13,"A",3,42,"neg","diff","female",1,779
"1143",13,"A",3,43,"pos","same","female",1,885
"1144",13,"A",3,44,"neg","same","female",1,635
"1145",13,"A",3,45,"neu","diff","female",1,859
"1146",13,"A",3,46,"neu","diff","female",1,1154
"1147",13,"A",3,47,"neu","same","female",1,413
"1148",13,"A",3,48,"neu","same","female",1,438
"1149",13,"A",3,49,"neu","same","female",1,638
"1150",13,"A",3,50,"neu","same","female",1,622
"1151",13,"A",3,51,"neu","same","female",1,479
"1152",13,"A",3,52,"neg","diff","female",1,662
"1153",13,"A",3,53,"neg","diff","female",1,853
"1154",13,"A",3,54,"neg","same","female",1,428
"1155",13,"A",3,55,"neg","same","female",1,517
"1156",13,"A",4,1,"neu","same","female",0,NA
"1157",13,"A",4,2,"neg","same","female",0,NA
"1158",13,"A",4,3,"neu","same","female",1,546
"1159",13,"A",4,4,"neg","same","female",1,998
"1160",13,"A",4,5,"neg","diff","female",1,663
"1161",13,"A",4,6,"neg","same","female",1,886
"1162",13,"A",4,7,"neg","same","female",1,476
"1163",13,"A",4,8,"neg","same","female",1,595
"1164",13,"A",4,9,"pos","diff","female",1,677
"1165",13,"A",4,10,"neg","same","female",1,835
"1166",13,"A",4,11,"neg","diff","female",1,779
"1167",13,"A",4,12,"neg","same","female",1,613
"1168",13,"A",4,13,"neu","diff","female",1,679
"1169",13,"A",4,14,"neg","same","female",1,581
"1170",13,"A",4,15,"pos","diff","female",1,711
"1171",13,"A",4,16,"neu","diff","female",1,932
"1172",13,"A",4,17,"pos","same","female",1,568
"1173",13,"A",4,18,"neg","diff","female",1,667
"1174",13,"A",4,19,"pos","same","female",1,569
"1175",13,"A",4,20,"pos","diff","female",1,732
"1176",13,"A",4,21,"neg","diff","female",1,744
"1177",13,"A",4,22,"neg","diff","female",1,596
"1178",13,"A",4,23,"neu","diff","female",1,694
"1179",13,"A",4,24,"neg","same","female",1,531
"1180",13,"A",4,25,"pos","diff","female",1,599
"1181",13,"A",4,26,"neg","same","female",1,585
"1182",13,"A",4,27,"pos","same","female",1,779
"1183",13,"A",4,28,"neg","same","female",1,1221
"1184",13,"A",4,29,"neu","diff","female",1,493
"1185",13,"A",4,30,"neg","same","female",1,515
"1186",13,"A",4,31,"neg","diff","female",1,664
"1187",13,"A",4,32,"neg","same","female",1,582
"1188",13,"A",4,33,"pos","diff","female",1,648
"1189",13,"A",4,34,"pos","diff","female",1,471
"1190",13,"A",4,35,"pos","same","female",1,510
"1191",13,"A",4,36,"pos","same","female",1,403
"1192",13,"A",4,37,"pos","same","female",1,573
"1193",13,"A",4,38,"pos","same","female",1,383
"1194",13,"A",4,39,"neu","diff","female",1,633
"1195",13,"A",4,40,"pos","same","female",1,441
"1196",13,"A",4,41,"neu","same","female",1,609
"1197",13,"A",4,42,"pos","same","female",1,419
"1198",13,"A",4,43,"neg","diff","female",1,619
"1199",13,"A",4,44,"pos","same","female",1,412
"1200",13,"A",4,45,"neg","same","female",1,1093
"1201",13,"A",4,46,"neg","diff","female",1,675
"1202",13,"A",4,47,"pos","diff","female",1,769
"1203",13,"A",4,48,"neu","diff","female",1,764
"1204",13,"A",4,49,"pos","same","female",1,663
"1205",13,"A",4,50,"neu","same","female",1,518
"1206",13,"A",4,51,"neu","diff","female",1,699
"1207",13,"A",4,52,"neg","diff","female",0,NA
"1208",13,"A",4,53,"neg","diff","female",0,NA
"1209",13,"A",4,54,"neg","same","female",0,NA
"1210",13,"A",4,55,"neg","same","female",1,1443
"1211",13,"A",5,1,"pos","same","female",0,NA
"1212",13,"A",5,2,"neu","same","female",0,NA
"1213",13,"A",5,3,"pos","same","female",1,407
"1214",13,"A",5,4,"neu","same","female",1,928
"1215",13,"A",5,5,"neu","diff","female",1,1109
"1216",13,"A",5,6,"neg","diff","female",1,722
"1217",13,"A",5,7,"neu","same","female",1,1135
"1218",13,"A",5,8,"neg","same","female",1,426
"1219",13,"A",5,9,"neu","same","female",1,403
"1220",13,"A",5,10,"neg","same","female",1,524
"1221",13,"A",5,11,"pos","diff","female",1,769
"1222",13,"A",5,12,"pos","diff","female",1,795
"1223",13,"A",5,13,"neu","diff","female",1,677
"1224",13,"A",5,14,"neu","diff","female",1,1348
"1225",13,"A",5,15,"neu","same","female",1,647
"1226",13,"A",5,16,"neu","same","female",1,519
"1227",13,"A",5,17,"neg","diff","female",1,780
"1228",13,"A",5,18,"neu","same","female",1,662
"1229",13,"A",5,19,"pos","diff","female",1,662
"1230",13,"A",5,20,"neu","same","female",1,629
"1231",13,"A",5,21,"neu","diff","female",1,485
"1232",13,"A",5,22,"neu","same","female",1,619
"1233",13,"A",5,23,"neu","same","female",1,668
"1234",13,"A",5,24,"pos","diff","female",1,682
"1235",13,"A",5,25,"neg","diff","female",1,696
"1236",13,"A",5,26,"neg","diff","female",1,598
"1237",13,"A",5,27,"pos","diff","female",1,583
"1238",13,"A",5,28,"neu","diff","female",1,713
"1239",13,"A",5,29,"neg","diff","female",1,647
"1240",13,"A",5,30,"neu","same","female",1,711
"1241",13,"A",5,31,"neg","same","female",1,996
"1242",13,"A",5,32,"neg","diff","female",1,1172
"1243",13,"A",5,33,"neg","same","female",1,575
"1244",13,"A",5,34,"pos","diff","female",1,705
"1245",13,"A",5,35,"neg","same","female",1,495
"1246",13,"A",5,36,"neg","diff","female",1,629
"1247",13,"A",5,37,"neg","same","female",1,501
"1248",13,"A",5,38,"pos","diff","female",1,587
"1249",13,"A",5,39,"neu","diff","female",1,700
"1250",13,"A",5,40,"neg","diff","female",1,730
"1251",13,"A",5,41,"neu","same","female",1,614
"1252",13,"A",5,42,"neu","diff","female",1,631
"1253",13,"A",5,43,"neg","diff","female",1,583
"1254",13,"A",5,44,"pos","diff","female",1,793
"1255",13,"A",5,45,"pos","diff","female",1,771
"1256",13,"A",5,46,"neg","diff","female",1,702
"1257",13,"A",5,47,"neu","diff","female",1,667
"1258",13,"A",5,48,"neu","diff","female",1,889
"1259",13,"A",5,49,"neg","diff","female",1,671
"1260",13,"A",5,50,"neu","same","female",1,750
"1261",13,"A",5,51,"neu","diff","female",1,1049
"1262",13,"A",5,52,"pos","diff","female",1,664
"1263",13,"A",5,53,"neu","same","female",1,583
"1264",13,"A",5,54,"pos","same","female",1,521
"1265",13,"A",5,55,"neu","same","female",1,990
"1266",13,"A",6,1,"neg","same","female",0,NA
"1267",13,"A",6,2,"neg","same","female",0,NA
"1268",13,"A",6,3,"neg","same","female",1,756
"1269",13,"A",6,4,"neg","same","female",1,512
"1270",13,"A",6,5,"neg","same","female",1,533
"1271",13,"A",6,6,"neu","diff","female",1,585
"1272",13,"A",6,7,"neg","same","female",1,603
"1273",13,"A",6,8,"neg","diff","female",1,844
"1274",13,"A",6,9,"neu","diff","female",0,612
"1275",13,"A",6,10,"pos","diff","female",1,485
"1276",13,"A",6,11,"pos","diff","female",1,1115
"1277",13,"A",6,12,"neg","diff","female",1,536
"1278",13,"A",6,13,"pos","same","female",1,475
"1279",13,"A",6,14,"neu","diff","female",1,706
"1280",13,"A",6,15,"pos","same","female",1,383
"1281",13,"A",6,16,"neu","same","female",1,729
"1282",13,"A",6,17,"neu","diff","female",1,854
"1283",13,"A",6,18,"neu","same","female",1,701
"1284",13,"A",6,19,"neu","same","female",1,458
"1285",13,"A",6,20,"neg","diff","female",1,626
"1286",13,"A",6,21,"neg","diff","female",1,722
"1287",13,"A",6,22,"pos","diff","female",1,783
"1288",13,"A",6,23,"neg","same","female",1,777
"1289",13,"A",6,24,"neg","diff","female",1,595
"1290",13,"A",6,25,"neg","same","female",1,565
"1291",13,"A",6,26,"neg","same","female",1,552
"1292",13,"A",6,27,"neg","same","female",1,635
"1293",13,"A",6,28,"neg","same","female",1,475
"1294",13,"A",6,29,"pos","diff","female",1,657
"1295",13,"A",6,30,"neu","diff","female",1,961
"1296",13,"A",6,31,"pos","same","female",1,387
"1297",13,"A",6,32,"pos","diff","female",1,877
"1298",13,"A",6,33,"pos","same","female",1,627
"1299",13,"A",6,34,"pos","same","female",1,564
"1300",13,"A",6,35,"neu","diff","female",1,711
"1301",13,"A",6,36,"neu","diff","female",1,532
"1302",13,"A",6,37,"neg","diff","female",1,600
"1303",13,"A",6,38,"neu","same","female",1,570
"1304",13,"A",6,39,"neg","same","female",1,940
"1305",13,"A",6,40,"neu","same","female",1,544
"1306",13,"A",6,41,"neg","same","female",1,484
"1307",13,"A",6,42,"pos","diff","female",1,602
"1308",13,"A",6,43,"pos","diff","female",1,603
"1309",13,"A",6,44,"pos","same","female",1,412
"1310",13,"A",6,45,"neg","diff","female",1,502
"1311",13,"A",6,46,"neu","diff","female",1,747
"1312",13,"A",6,47,"neg","same","female",1,471
"1313",13,"A",6,48,"neu","same","female",1,573
"1314",13,"A",6,49,"neu","diff","female",1,944
"1315",13,"A",6,50,"pos","diff","female",1,564
"1316",13,"A",6,51,"neu","same","female",1,487
"1317",13,"A",6,52,"neu","diff","female",1,781
"1318",13,"A",6,53,"neu","same","female",1,584
"1319",13,"A",6,54,"neu","same","female",1,474
"1320",13,"A",6,55,"neu","same","female",1,704
"1321",14,"A",1,1,"neu","same","female",0,NA
"1322",14,"A",1,2,"pos","same","female",0,NA
"1323",14,"A",1,3,"neu","same","female",1,1131
"1324",14,"A",1,4,"pos","same","female",0,679
"1325",14,"A",1,5,"neu","same","female",1,1318
"1326",14,"A",1,6,"neu","diff","female",0,NA
"1327",14,"A",1,7,"pos","diff","female",0,NA
"1328",14,"A",1,8,"pos","diff","female",1,1383
"1329",14,"A",1,9,"pos","same","female",1,1385
"1330",14,"A",1,10,"pos","same","female",0,1162
"1331",14,"A",1,11,"pos","same","female",1,1028
"1332",14,"A",1,12,"pos","same","female",1,1125
"1333",14,"A",1,13,"neu","diff","female",0,1281
"1334",14,"A",1,14,"neg","diff","female",1,1063
"1335",14,"A",1,15,"neu","same","female",0,NA
"1336",14,"A",1,16,"neu","diff","female",1,1444
"1337",14,"A",1,17,"neg","diff","female",0,963
"1338",14,"A",1,18,"neg","diff","female",0,NA
"1339",14,"A",1,19,"pos","diff","female",1,1288
"1340",14,"A",1,20,"neg","same","female",0,NA
"1341",14,"A",1,21,"neu","diff","female",1,1431
"1342",14,"A",1,22,"neg","same","female",1,1415
"1343",14,"A",1,23,"neg","diff","female",0,NA
"1344",14,"A",1,24,"neg","same","female",0,NA
"1345",14,"A",1,25,"neg","same","female",0,NA
"1346",14,"A",1,26,"pos","diff","female",0,NA
"1347",14,"A",1,27,"neu","diff","female",0,NA
"1348",14,"A",1,28,"neu","diff","female",0,NA
"1349",14,"A",1,29,"neu","same","female",0,NA
"1350",14,"A",1,30,"neu","same","female",0,NA
"1351",14,"A",1,31,"neg","diff","female",0,NA
"1352",14,"A",1,32,"neu","same","female",0,NA
"1353",14,"A",1,33,"pos","diff","female",0,NA
"1354",14,"A",1,34,"neu","same","female",0,NA
"1355",14,"A",1,35,"pos","same","female",1,889
"1356",14,"A",1,36,"neu","same","female",0,NA
"1357",14,"A",1,37,"neu","diff","female",0,NA
"1358",14,"A",1,38,"neg","diff","female",1,1184
"1359",14,"A",1,39,"neu","same","female",0,NA
"1360",14,"A",1,40,"neu","diff","female",0,NA
"1361",14,"A",1,41,"pos","diff","female",1,716
"1362",14,"A",1,42,"neu","same","female",0,NA
"1363",14,"A",1,43,"pos","same","female",0,NA
"1364",14,"A",1,44,"neu","same","female",1,843
"1365",14,"A",1,45,"pos","same","female",0,NA
"1366",14,"A",1,46,"neg","diff","female",0,NA
"1367",14,"A",1,47,"neg","diff","female",1,1366
"1368",14,"A",1,48,"neg","same","female",0,NA
"1369",14,"A",1,49,"pos","diff","female",0,NA
"1370",14,"A",1,50,"neg","same","female",1,731
"1371",14,"A",1,51,"pos","same","female",0,NA
"1372",14,"A",1,52,"neg","same","female",0,NA
"1373",14,"A",1,53,"pos","same","female",1,762
"1374",14,"A",1,54,"pos","diff","female",0,NA
"1375",14,"A",1,55,"pos","same","female",0,NA
"1376",14,"A",2,1,"pos","same","female",0,NA
"1377",14,"A",2,2,"pos","same","female",0,NA
"1378",14,"A",2,3,"pos","same","female",1,880
"1379",14,"A",2,4,"pos","same","female",0,NA
"1380",14,"A",2,5,"neg","diff","female",0,NA
"1381",14,"A",2,6,"pos","same","female",0,953
"1382",14,"A",2,7,"pos","diff","female",0,NA
"1383",14,"A",2,8,"pos","same","female",0,NA
"1384",14,"A",2,9,"neu","diff","female",1,959
"1385",14,"A",2,10,"pos","same","female",0,NA
"1386",14,"A",2,11,"neu","same","female",0,NA
"1387",14,"A",2,12,"neg","diff","female",1,517
"1388",14,"A",2,13,"neu","same","female",0,NA
"1389",14,"A",2,14,"neg","same","female",0,NA
"1390",14,"A",2,15,"pos","diff","female",1,780
"1391",14,"A",2,16,"pos","diff","female",0,NA
"1392",14,"A",2,17,"pos","same","female",0,NA
"1393",14,"A",2,18,"neu","diff","female",1,713
"1394",14,"A",2,19,"pos","same","female",0,NA
"1395",14,"A",2,20,"pos","diff","female",0,NA
"1396",14,"A",2,21,"neg","diff","female",1,905
"1397",14,"A",2,22,"neu","diff","female",0,NA
"1398",14,"A",2,23,"neu","diff","female",0,NA
"1399",14,"A",2,24,"pos","diff","female",1,1072
"1400",14,"A",2,25,"pos","diff","female",0,NA
"1401",14,"A",2,26,"neu","diff","female",0,NA
"1402",14,"A",2,27,"pos","same","female",1,497
"1403",14,"A",2,28,"pos","diff","female",0,NA
"1404",14,"A",2,29,"neu","diff","female",0,NA
"1405",14,"A",2,30,"neg","diff","female",1,713
"1406",14,"A",2,31,"neu","same","female",0,NA
"1407",14,"A",2,32,"neg","same","female",0,NA
"1408",14,"A",2,33,"neu","same","female",1,1113
"1409",14,"A",2,34,"pos","diff","female",0,NA
"1410",14,"A",2,35,"neu","same","female",0,NA
"1411",14,"A",2,36,"pos","same","female",0,888
"1412",14,"A",2,37,"neu","same","female",0,NA
"1413",14,"A",2,38,"pos","same","female",0,NA
"1414",14,"A",2,39,"neu","same","female",1,881
"1415",14,"A",2,40,"neu","diff","female",0,NA
"1416",14,"A",2,41,"pos","diff","female",0,NA
"1417",14,"A",2,42,"neg","diff","female",1,810
"1418",14,"A",2,43,"neu","diff","female",0,NA
"1419",14,"A",2,44,"pos","diff","female",0,NA
"1420",14,"A",2,45,"pos","diff","female",1,1302
"1421",14,"A",2,46,"pos","same","female",0,NA
"1422",14,"A",2,47,"pos","same","female",0,NA
"1423",14,"A",2,48,"pos","same","female",1,733
"1424",14,"A",2,49,"neg","diff","female",0,NA
"1425",14,"A",2,50,"pos","same","female",0,NA
"1426",14,"A",2,51,"neg","same","female",1,794
"1427",14,"A",2,52,"pos","same","female",0,NA
"1428",14,"A",2,53,"pos","diff","female",0,NA
"1429",14,"A",2,54,"pos","same","female",1,871
"1430",14,"A",2,55,"pos","same","female",0,NA
"1431",14,"A",3,1,"neg","same","female",0,NA
"1432",14,"A",3,2,"neu","same","female",0,NA
"1433",14,"A",3,3,"pos","diff","female",1,1218
"1434",14,"A",3,4,"pos","diff","female",0,NA
"1435",14,"A",3,5,"neu","diff","female",0,NA
"1436",14,"A",3,6,"pos","same","female",1,653
"1437",14,"A",3,7,"pos","diff","female",0,NA
"1438",14,"A",3,8,"neg","diff","female",0,NA
"1439",14,"A",3,9,"neu","diff","female",1,703
"1440",14,"A",3,10,"neg","same","female",0,NA
"1441",14,"A",3,11,"neu","same","female",1,1061
"1442",14,"A",3,12,"pos","diff","female",0,NA
"1443",14,"A",3,13,"neu","same","female",1,1006
"1444",14,"A",3,14,"pos","same","female",0,NA
"1445",14,"A",3,15,"pos","diff","female",0,NA
"1446",14,"A",3,16,"neg","diff","female",0,NA
"1447",14,"A",3,17,"pos","same","female",0,NA
"1448",14,"A",3,18,"pos","diff","female",0,NA
"1449",14,"A",3,19,"pos","same","female",1,1374
"1450",14,"A",3,20,"pos","same","female",0,NA
"1451",14,"A",3,21,"pos","same","female",1,1032
"1452",14,"A",3,22,"pos","same","female",0,NA
"1453",14,"A",3,23,"neg","diff","female",1,865
"1454",14,"A",3,24,"neu","diff","female",0,NA
"1455",14,"A",3,25,"neu","diff","female",1,769
"1456",14,"A",3,26,"pos","diff","female",0,908
"1457",14,"A",3,27,"pos","diff","female",1,1025
"1458",14,"A",3,28,"neu","diff","female",0,993
"1459",14,"A",3,29,"pos","same","female",0,1235
"1460",14,"A",3,30,"neu","same","female",1,907
"1461",14,"A",3,31,"pos","same","female",1,1072
"1462",14,"A",3,32,"neg","diff","female",0,NA
"1463",14,"A",3,33,"neg","diff","female",0,887
"1464",14,"A",3,34,"neu","diff","female",1,1165
"1465",14,"A",3,35,"pos","diff","female",0,1015
"1466",14,"A",3,36,"pos","diff","female",0,NA
"1467",14,"A",3,37,"neu","diff","female",1,1297
"1468",14,"A",3,38,"pos","same","female",0,NA
"1469",14,"A",3,39,"neg","diff","female",0,NA
"1470",14,"A",3,40,"pos","same","female",1,969
"1471",14,"A",3,41,"pos","diff","female",1,908
"1472",14,"A",3,42,"neg","diff","female",0,NA
"1473",14,"A",3,43,"neu","diff","female",0,NA
"1474",14,"A",3,44,"neg","same","female",0,NA
"1475",14,"A",3,45,"neg","diff","female",1,1108
"1476",14,"A",3,46,"neg","same","female",0,NA
"1477",14,"A",3,47,"neg","same","female",0,NA
"1478",14,"A",3,48,"neg","same","female",1,1027
"1479",14,"A",3,49,"pos","diff","female",0,NA
"1480",14,"A",3,50,"neg","same","female",1,892
"1481",14,"A",3,51,"neg","diff","female",1,866
"1482",14,"A",3,52,"neg","same","female",0,1273
"1483",14,"A",3,53,"pos","diff","female",0,NA
"1484",14,"A",3,54,"neg","same","female",0,NA
"1485",14,"A",3,55,"neu","diff","female",1,977
"1486",14,"A",4,1,"pos","diff","female",0,NA
"1487",14,"A",4,2,"neu","diff","female",0,NA
"1488",14,"A",4,3,"neg","diff","female",1,569
"1489",14,"A",4,4,"neu","same","female",1,1148
"1490",14,"A",4,5,"neu","diff","female",1,1144
"1491",14,"A",4,6,"neg","diff","female",1,1283
"1492",14,"A",4,7,"neu","same","female",0,NA
"1493",14,"A",4,8,"neg","same","female",0,NA
"1494",14,"A",4,9,"neu","same","female",1,1037
"1495",14,"A",4,10,"neg","same","female",1,940
"1496",14,"A",4,11,"neu","same","female",1,815
"1497",14,"A",4,12,"neu","diff","female",0,1464
"1498",14,"A",4,13,"neu","same","female",0,NA
"1499",14,"A",4,14,"pos","diff","female",1,1353
"1500",14,"A",4,15,"neg","diff","female",0,1164
"1501",14,"A",4,16,"neu","diff","female",1,583
"1502",14,"A",4,17,"neu","diff","female",1,1065
"1503",14,"A",4,18,"pos","diff","female",1,1287
"1504",14,"A",4,19,"neg","diff","female",1,1373
"1505",14,"A",4,20,"neg","diff","female",0,1327
"1506",14,"A",4,21,"pos","diff","female",0,NA
"1507",14,"A",4,22,"neu","diff","female",0,NA
"1508",14,"A",4,23,"neu","diff","female",1,687
"1509",14,"A",4,24,"neg","diff","female",0,1069
"1510",14,"A",4,25,"pos","diff","female",1,619
"1511",14,"A",4,26,"neu","diff","female",0,635
"1512",14,"A",4,27,"neg","diff","female",1,587
"1513",14,"A",4,28,"neu","same","female",1,909
"1514",14,"A",4,29,"neu","diff","female",1,754
"1515",14,"A",4,30,"neg","diff","female",1,1070
"1516",14,"A",4,31,"neg","diff","female",0,NA
"1517",14,"A",4,32,"neg","same","female",1,834
"1518",14,"A",4,33,"pos","diff","female",1,762
"1519",14,"A",4,34,"neu","diff","female",1,565
"1520",14,"A",4,35,"neu","diff","female",1,520
"1521",14,"A",4,36,"neg","diff","female",0,813
"1522",14,"A",4,37,"neu","same","female",1,678
"1523",14,"A",4,38,"neg","same","female",1,820
"1524",14,"A",4,39,"neu","same","female",1,797
"1525",14,"A",4,40,"pos","diff","female",1,887
"1526",14,"A",4,41,"neg","diff","female",1,1419
"1527",14,"A",4,42,"neu","diff","female",1,556
"1528",14,"A",4,43,"neg","same","female",1,943
"1529",14,"A",4,44,"pos","diff","female",1,1027
"1530",14,"A",4,45,"pos","diff","female",0,963
"1531",14,"A",4,46,"pos","same","female",0,1094
"1532",14,"A",4,47,"pos","same","female",1,1076
"1533",14,"A",4,48,"neu","diff","female",1,642
"1534",14,"A",4,49,"pos","same","female",0,NA
"1535",14,"A",4,50,"pos","diff","female",0,NA
"1536",14,"A",4,51,"pos","same","female",1,1047
"1537",14,"A",4,52,"pos","same","female",0,NA
"1538",14,"A",4,53,"pos","same","female",0,NA
"1539",14,"A",4,54,"neg","diff","female",1,1017
"1540",14,"A",4,55,"pos","same","female",0,NA
"1541",14,"A",5,1,"neg","same","female",0,NA
"1542",14,"A",5,2,"neg","same","female",0,NA
"1543",14,"A",5,3,"neg","same","female",1,896
"1544",14,"A",5,4,"neg","same","female",1,1350
"1545",14,"A",5,5,"neu","diff","female",1,681
"1546",14,"A",5,6,"neg","same","female",1,487
"1547",14,"A",5,7,"neg","diff","female",1,701
"1548",14,"A",5,8,"neg","same","female",1,699
"1549",14,"A",5,9,"neg","same","female",1,568
"1550",14,"A",5,10,"neu","diff","female",1,1194
"1551",14,"A",5,11,"neg","same","female",1,964
"1552",14,"A",5,12,"pos","diff","female",1,1239
"1553",14,"A",5,13,"neg","same","female",1,590
"1554",14,"A",5,14,"neu","diff","female",1,608
"1555",14,"A",5,15,"pos","diff","female",1,913
"1556",14,"A",5,16,"neu","same","female",0,1158
"1557",14,"A",5,17,"neg","diff","female",1,1233
"1558",14,"A",5,18,"neg","diff","female",0,1113
"1559",14,"A",5,19,"pos","diff","female",1,534
"1560",14,"A",5,20,"neg","same","female",0,NA
"1561",14,"A",5,21,"neg","diff","female",0,NA
"1562",14,"A",5,22,"neu","diff","female",0,1263
"1563",14,"A",5,23,"neu","diff","female",1,982
"1564",14,"A",5,24,"neg","diff","female",0,NA
"1565",14,"A",5,25,"neg","diff","female",0,NA
"1566",14,"A",5,26,"pos","diff","female",1,714
"1567",14,"A",5,27,"neu","diff","female",1,1271
"1568",14,"A",5,28,"pos","same","female",0,NA
"1569",14,"A",5,29,"neg","diff","female",0,NA
"1570",14,"A",5,30,"pos","same","female",0,739
"1571",14,"A",5,31,"neg","same","female",0,879
"1572",14,"A",5,32,"neg","diff","female",0,1253
"1573",14,"A",5,33,"pos","diff","female",0,NA
"1574",14,"A",5,34,"neu","diff","female",1,1157
"1575",14,"A",5,35,"neg","diff","female",0,NA
"1576",14,"A",5,36,"neu","same","female",0,NA
"1577",14,"A",5,37,"neg","same","female",1,819
"1578",14,"A",5,38,"pos","diff","female",1,731
"1579",14,"A",5,39,"neg","same","female",1,584
"1580",14,"A",5,40,"pos","same","female",1,730
"1581",14,"A",5,41,"neg","same","female",1,917
"1582",14,"A",5,42,"neg","diff","female",1,1002
"1583",14,"A",5,43,"pos","diff","female",0,NA
"1584",14,"A",5,44,"neg","same","female",0,1068
"1585",14,"A",5,45,"neg","diff","female",0,1082
"1586",14,"A",5,46,"neg","same","female",1,1176
"1587",14,"A",5,47,"neg","same","female",1,1090
"1588",14,"A",5,48,"pos","diff","female",1,1232
"1589",14,"A",5,49,"neu","diff","female",1,744
"1590",14,"A",5,50,"neg","diff","female",1,1012
"1591",14,"A",5,51,"neu","same","female",1,821
"1592",14,"A",5,52,"neg","same","female",0,1405
"1593",14,"A",5,53,"neu","same","female",1,670
"1594",14,"A",5,54,"pos","diff","female",0,NA
"1595",14,"A",5,55,"neg","diff","female",0,1420
"1596",14,"A",6,1,"neu","diff","female",0,NA
"1597",14,"A",6,2,"neu","diff","female",0,NA
"1598",14,"A",6,3,"pos","diff","female",1,530
"1599",14,"A",6,4,"neu","same","female",1,855
"1600",14,"A",6,5,"pos","same","female",0,478
"1601",14,"A",6,6,"pos","diff","female",1,788
"1602",14,"A",6,7,"neu","diff","female",1,606
"1603",14,"A",6,8,"pos","same","female",0,543
"1604",14,"A",6,9,"pos","diff","female",1,1123
"1605",14,"A",6,10,"pos","same","female",0,608
"1606",14,"A",6,11,"pos","same","female",1,528
"1607",14,"A",6,12,"pos","same","female",0,1205
"1608",14,"A",6,13,"pos","same","female",0,NA
"1609",14,"A",6,14,"neg","diff","female",1,519
"1610",14,"A",6,15,"pos","same","female",1,603
"1611",14,"A",6,16,"neg","same","female",1,893
"1612",14,"A",6,17,"pos","same","female",1,771
"1613",14,"A",6,18,"pos","diff","female",1,1053
"1614",14,"A",6,19,"neg","diff","female",1,1132
"1615",14,"A",6,20,"pos","same","female",1,712
"1616",14,"A",6,21,"neg","same","female",1,1205
"1617",14,"A",6,22,"neu","diff","female",0,NA
"1618",14,"A",6,23,"neg","same","female",1,823
"1619",14,"A",6,24,"neu","same","female",0,800
"1620",14,"A",6,25,"neg","same","female",0,NA
"1621",14,"A",6,26,"neu","same","female",0,NA
"1622",14,"A",6,27,"pos","diff","female",1,607
"1623",14,"A",6,28,"neg","diff","female",0,944
"1624",14,"A",6,29,"neg","diff","female",1,452
"1625",14,"A",6,30,"pos","diff","female",0,603
"1626",14,"A",6,31,"neg","same","female",1,1196
"1627",14,"A",6,32,"neu","diff","female",0,902
"1628",14,"A",6,33,"pos","diff","female",1,427
"1629",14,"A",6,34,"pos","diff","female",0,1028
"1630",14,"A",6,35,"pos","same","female",0,404
"1631",14,"A",6,36,"pos","same","female",1,477
"1632",14,"A",6,37,"pos","same","female",0,900
"1633",14,"A",6,38,"neu","diff","female",1,697
"1634",14,"A",6,39,"neg","diff","female",0,NA
"1635",14,"A",6,40,"neu","same","female",1,800
"1636",14,"A",6,41,"pos","diff","female",0,NA
"1637",14,"A",6,42,"neu","same","female",1,898
"1638",14,"A",6,43,"neg","diff","female",1,711
"1639",14,"A",6,44,"neu","same","female",0,980
"1640",14,"A",6,45,"pos","diff","female",0,519
"1641",14,"A",6,46,"neg","diff","female",1,571
"1642",14,"A",6,47,"pos","same","female",0,NA
"1643",14,"A",6,48,"neu","diff","female",1,999
"1644",14,"A",6,49,"pos","same","female",1,952
"1645",14,"A",6,50,"neu","same","female",0,507
"1646",14,"A",6,51,"pos","same","female",0,784
"1647",14,"A",6,52,"neu","same","female",1,410
"1648",14,"A",6,53,"neu","diff","female",1,1252
"1649",14,"A",6,54,"pos","diff","female",0,NA
"1650",14,"A",6,55,"pos","diff","female",1,612
"1651",15,"A",1,1,"neg","same","male",0,NA
"1652",15,"A",1,2,"pos","same","male",0,NA
"1653",15,"A",1,3,"neu","diff","male",1,653
"1654",15,"A",1,4,"pos","same","male",1,809
"1655",15,"A",1,5,"neu","same","male",1,642
"1656",15,"A",1,6,"pos","same","male",1,699
"1657",15,"A",1,7,"pos","diff","male",0,511
"1658",15,"A",1,8,"pos","same","male",1,526
"1659",15,"A",1,9,"pos","same","male",1,543
"1660",15,"A",1,10,"pos","same","male",1,499
"1661",15,"A",1,11,"neg","diff","male",1,558
"1662",15,"A",1,12,"pos","same","male",1,408
"1663",15,"A",1,13,"neg","same","male",0,497
"1664",15,"A",1,14,"neg","diff","male",1,908
"1665",15,"A",1,15,"neu","diff","male",1,683
"1666",15,"A",1,16,"neu","diff","male",1,908
"1667",15,"A",1,17,"neu","same","male",0,1131
"1668",15,"A",1,18,"neu","same","male",1,1044
"1669",15,"A",1,19,"pos","diff","male",0,717
"1670",15,"A",1,20,"neu","same","male",1,723
"1671",15,"A",1,21,"neu","diff","male",0,508
"1672",15,"A",1,22,"neu","same","male",1,539
"1673",15,"A",1,23,"neu","same","male",1,447
"1674",15,"A",1,24,"pos","diff","male",1,848
"1675",15,"A",1,25,"neu","same","male",1,529
"1676",15,"A",1,26,"pos","same","male",1,450
"1677",15,"A",1,27,"neg","diff","male",1,659
"1678",15,"A",1,28,"neu","diff","male",1,1071
"1679",15,"A",1,29,"neu","diff","male",1,1182
"1680",15,"A",1,30,"neg","diff","male",1,850
"1681",15,"A",1,31,"neu","same","male",1,755
"1682",15,"A",1,32,"neg","same","male",0,786
"1683",15,"A",1,33,"neg","diff","male",1,584
"1684",15,"A",1,34,"neg","same","male",1,647
"1685",15,"A",1,35,"neu","diff","male",1,624
"1686",15,"A",1,36,"pos","diff","male",1,660
"1687",15,"A",1,37,"neu","same","male",1,768
"1688",15,"A",1,38,"neu","diff","male",0,1201
"1689",15,"A",1,39,"pos","diff","male",0,779
"1690",15,"A",1,40,"neg","diff","male",1,558
"1691",15,"A",1,41,"pos","same","male",1,536
"1692",15,"A",1,42,"pos","diff","male",0,507
"1693",15,"A",1,43,"neg","diff","male",1,650
"1694",15,"A",1,44,"pos","same","male",1,531
"1695",15,"A",1,45,"pos","diff","male",0,724
"1696",15,"A",1,46,"pos","same","male",0,733
"1697",15,"A",1,47,"neg","diff","male",1,617
"1698",15,"A",1,48,"pos","same","male",1,669
"1699",15,"A",1,49,"neu","diff","male",1,620
"1700",15,"A",1,50,"neg","diff","male",1,512
"1701",15,"A",1,51,"neu","same","male",1,942
"1702",15,"A",1,52,"neg","same","male",1,658
"1703",15,"A",1,53,"pos","diff","male",1,542
"1704",15,"A",1,54,"neg","same","male",1,450
"1705",15,"A",1,55,"pos","same","male",1,467
"1706",15,"A",2,1,"neg","same","male",0,NA
"1707",15,"A",2,2,"neu","same","male",0,NA
"1708",15,"A",2,3,"neg","same","male",1,443
"1709",15,"A",2,4,"neg","diff","male",1,700
"1710",15,"A",2,5,"neg","same","male",1,479
"1711",15,"A",2,6,"neg","same","male",1,457
"1712",15,"A",2,7,"neu","diff","male",1,492
"1713",15,"A",2,8,"pos","diff","male",1,632
"1714",15,"A",2,9,"neg","diff","male",1,879
"1715",15,"A",2,10,"neu","diff","male",1,552
"1716",15,"A",2,11,"neg","same","male",1,591
"1717",15,"A",2,12,"pos","diff","male",1,477
"1718",15,"A",2,13,"neg","same","male",1,546
"1719",15,"A",2,14,"pos","same","male",1,857
"1720",15,"A",2,15,"pos","diff","male",1,1469
"1721",15,"A",2,16,"pos","same","male",1,428
"1722",15,"A",2,17,"pos","same","male",1,394
"1723",15,"A",2,18,"pos","same","male",1,401
"1724",15,"A",2,19,"pos","same","male",1,362
"1725",15,"A",2,20,"neu","diff","male",1,427
"1726",15,"A",2,21,"neg","diff","male",1,409
"1727",15,"A",2,22,"neu","same","male",0,738
"1728",15,"A",2,23,"neg","same","male",1,510
"1729",15,"A",2,24,"neg","diff","male",1,717
"1730",15,"A",2,25,"neu","diff","male",1,963
"1731",15,"A",2,26,"neu","diff","male",1,749
"1732",15,"A",2,27,"neu","same","male",1,411
"1733",15,"A",2,28,"neu","same","male",1,388
"1734",15,"A",2,29,"neu","same","male",1,411
"1735",15,"A",2,30,"neu","same","male",1,340
"1736",15,"A",2,31,"pos","diff","male",1,592
"1737",15,"A",2,32,"neu","same","male",1,462
"1738",15,"A",2,33,"neg","diff","male",1,466
"1739",15,"A",2,34,"neg","diff","male",1,1336
"1740",15,"A",2,35,"neg","same","male",1,764
"1741",15,"A",2,36,"neg","same","male",1,382
"1742",15,"A",2,37,"neg","same","male",1,433
"1743",15,"A",2,38,"neg","same","male",1,384
"1744",15,"A",2,39,"neg","same","male",1,436
"1745",15,"A",2,40,"neu","diff","male",1,562
"1746",15,"A",2,41,"pos","diff","male",1,523
"1747",15,"A",2,42,"neu","same","male",1,1084
"1748",15,"A",2,43,"neg","diff","male",1,590
"1749",15,"A",2,44,"neg","diff","male",1,556
"1750",15,"A",2,45,"neg","same","male",1,515
"1751",15,"A",2,46,"pos","diff","male",1,385
"1752",15,"A",2,47,"neu","diff","male",1,552
"1753",15,"A",2,48,"neg","diff","male",1,558
"1754",15,"A",2,49,"neg","diff","male",1,901
"1755",15,"A",2,50,"neg","same","male",1,481
"1756",15,"A",2,51,"neg","same","male",1,330
"1757",15,"A",2,52,"pos","diff","male",1,387
"1758",15,"A",2,53,"neg","same","male",1,505
"1759",15,"A",2,54,"pos","same","male",0,696
"1760",15,"A",2,55,"pos","diff","male",0,619
"1761",15,"A",3,1,"neu","diff","male",0,NA
"1762",15,"A",3,2,"neu","diff","male",0,NA
"1763",15,"A",3,3,"neu","same","male",1,451
"1764",15,"A",3,4,"neu","same","male",1,452
"1765",15,"A",3,5,"pos","diff","male",1,408
"1766",15,"A",3,6,"neu","same","male",1,624
"1767",15,"A",3,7,"pos","same","male",1,311
"1768",15,"A",3,8,"neu","same","male",1,429
"1769",15,"A",3,9,"pos","same","male",1,379
"1770",15,"A",3,10,"neu","same","male",1,399
"1771",15,"A",3,11,"pos","same","male",1,360
"1772",15,"A",3,12,"pos","diff","male",0,441
"1773",15,"A",3,13,"neu","diff","male",1,507
"1774",15,"A",3,14,"pos","same","male",1,313
"1775",15,"A",3,15,"neu","same","male",0,1247
"1776",15,"A",3,16,"neu","diff","male",0,465
"1777",15,"A",3,17,"neu","same","male",1,343
"1778",15,"A",3,18,"neu","same","male",1,371
"1779",15,"A",3,19,"neu","same","male",1,439
"1780",15,"A",3,20,"neg","diff","male",1,600
"1781",15,"A",3,21,"pos","diff","male",1,521
"1782",15,"A",3,22,"neu","diff","male",1,858
"1783",15,"A",3,23,"pos","same","male",1,414
"1784",15,"A",3,24,"neg","diff","male",1,506
"1785",15,"A",3,25,"neg","diff","male",1,472
"1786",15,"A",3,26,"pos","diff","male",1,639
"1787",15,"A",3,27,"neu","diff","male",1,728
"1788",15,"A",3,28,"neg","diff","male",1,593
"1789",15,"A",3,29,"neu","same","male",0,528
"1790",15,"A",3,30,"pos","diff","male",1,737
"1791",15,"A",3,31,"pos","diff","male",1,1261
"1792",15,"A",3,32,"neg","diff","male",1,465
"1793",15,"A",3,33,"neu","diff","male",1,519
"1794",15,"A",3,34,"neu","diff","male",1,1145
"1795",15,"A",3,35,"neu","same","male",1,631
"1796",15,"A",3,36,"pos","diff","male",1,462
"1797",15,"A",3,37,"neu","same","male",1,530
"1798",15,"A",3,38,"neu","diff","male",1,515
"1799",15,"A",3,39,"neu","same","male",1,465
"1800",15,"A",3,40,"neg","diff","male",1,600
"1801",15,"A",3,41,"neg","diff","male",1,921
"1802",15,"A",3,42,"neg","same","male",1,746
"1803",15,"A",3,43,"neu","diff","male",1,617
"1804",15,"A",3,44,"pos","diff","male",1,828
"1805",15,"A",3,45,"neu","same","male",1,555
"1806",15,"A",3,46,"neg","diff","male",1,498
"1807",15,"A",3,47,"neu","same","male",1,957
"1808",15,"A",3,48,"neu","diff","male",1,1095
"1809",15,"A",3,49,"pos","diff","male",1,651
"1810",15,"A",3,50,"neg","diff","male",1,772
"1811",15,"A",3,51,"neg","diff","male",1,424
"1812",15,"A",3,52,"neg","same","male",1,756
"1813",15,"A",3,53,"neg","same","male",1,402
"1814",15,"A",3,54,"neg","same","male",1,747
"1815",15,"A",3,55,"neg","same","male",1,442
"1816",15,"A",4,1,"neg","same","male",0,NA
"1817",15,"A",4,2,"neg","same","male",0,NA
"1818",15,"A",4,3,"neu","diff","male",1,624
"1819",15,"A",4,4,"neg","same","male",1,455
"1820",15,"A",4,5,"pos","diff","male",1,699
"1821",15,"A",4,6,"neu","diff","male",1,927
"1822",15,"A",4,7,"pos","same","male",1,416
"1823",15,"A",4,8,"neg","diff","male",1,492
"1824",15,"A",4,9,"pos","same","male",1,535
"1825",15,"A",4,10,"neg","same","male",1,347
"1826",15,"A",4,11,"pos","same","male",1,506
"1827",15,"A",4,12,"neg","same","male",1,1000
"1828",15,"A",4,13,"neu","diff","male",1,569
"1829",15,"A",4,14,"neg","same","male",1,755
"1830",15,"A",4,15,"neg","diff","male",1,529
"1831",15,"A",4,16,"pos","diff","male",1,530
"1832",15,"A",4,17,"neg","same","male",1,419
"1833",15,"A",4,18,"neg","diff","male",1,431
"1834",15,"A",4,19,"pos","diff","male",1,622
"1835",15,"A",4,20,"neg","same","male",1,690
"1836",15,"A",4,21,"neu","diff","male",1,467
"1837",15,"A",4,22,"neu","diff","male",1,985
"1838",15,"A",4,23,"neg","diff","male",1,456
"1839",15,"A",4,24,"neu","same","male",1,876
"1840",15,"A",4,25,"neg","same","male",1,370
"1841",15,"A",4,26,"neu","same","male",1,595
"1842",15,"A",4,27,"neu","diff","male",1,450
"1843",15,"A",4,28,"neg","diff","male",1,675
"1844",15,"A",4,29,"pos","diff","male",1,770
"1845",15,"A",4,30,"neu","diff","male",1,499
"1846",15,"A",4,31,"pos","same","male",1,1023
"1847",15,"A",4,32,"neu","same","male",1,467
"1848",15,"A",4,33,"pos","same","male",1,377
"1849",15,"A",4,34,"neu","same","male",1,477
"1850",15,"A",4,35,"pos","same","male",1,819
"1851",15,"A",4,36,"neg","diff","male",1,447
"1852",15,"A",4,37,"neg","diff","male",1,480
"1853",15,"A",4,38,"pos","diff","male",1,729
"1854",15,"A",4,39,"pos","diff","male",1,483
"1855",15,"A",4,40,"pos","same","male",1,460
"1856",15,"A",4,41,"neu","diff","male",1,368
"1857",15,"A",4,42,"neu","diff","male",1,481
"1858",15,"A",4,43,"neu","same","male",0,522
"1859",15,"A",4,44,"pos","diff","male",0,411
"1860",15,"A",4,45,"neg","diff","male",1,1044
"1861",15,"A",4,46,"neu","diff","male",1,989
"1862",15,"A",4,47,"neg","same","male",1,812
"1863",15,"A",4,48,"neu","same","male",1,392
"1864",15,"A",4,49,"neu","diff","male",1,462
"1865",15,"A",4,50,"neg","diff","male",1,546
"1866",15,"A",4,51,"neg","diff","male",1,1016
"1867",15,"A",4,52,"neu","diff","male",1,445
"1868",15,"A",4,53,"neg","same","male",1,829
"1869",15,"A",4,54,"neu","same","male",1,427
"1870",15,"A",4,55,"neg","same","male",1,842
"1871",15,"A",5,1,"neu","same","male",0,NA
"1872",15,"A",5,2,"neg","same","male",0,NA
"1873",15,"A",5,3,"neu","same","male",1,396
"1874",15,"A",5,4,"neu","diff","male",1,707
"1875",15,"A",5,5,"neu","same","male",1,553
"1876",15,"A",5,6,"neu","same","male",1,752
"1877",15,"A",5,7,"neu","same","male",1,542
"1878",15,"A",5,8,"pos","diff","male",1,514
"1879",15,"A",5,9,"neu","same","male",1,417
"1880",15,"A",5,10,"pos","same","male",1,428
"1881",15,"A",5,11,"pos","diff","male",1,955
"1882",15,"A",5,12,"pos","same","male",1,385
"1883",15,"A",5,13,"neg","diff","male",1,408
"1884",15,"A",5,14,"neu","diff","male",1,721
"1885",15,"A",5,15,"pos","diff","male",1,554
"1886",15,"A",5,16,"neu","same","male",1,577
"1887",15,"A",5,17,"neg","diff","male",1,412
"1888",15,"A",5,18,"pos","diff","male",1,568
"1889",15,"A",5,19,"pos","diff","male",0,529
"1890",15,"A",5,20,"pos","same","male",1,579
"1891",15,"A",5,21,"neu","diff","male",1,430
"1892",15,"A",5,22,"pos","same","male",1,813
"1893",15,"A",5,23,"neu","same","male",1,761
"1894",15,"A",5,24,"neu","diff","male",1,874
"1895",15,"A",5,25,"neg","diff","male",1,465
"1896",15,"A",5,26,"neg","diff","male",1,519
"1897",15,"A",5,27,"neu","diff","male",1,440
"1898",15,"A",5,28,"neg","same","male",1,729
"1899",15,"A",5,29,"neu","same","male",1,435
"1900",15,"A",5,30,"neg","same","male",1,737
"1901",15,"A",5,31,"neg","diff","male",1,557
"1902",15,"A",5,32,"pos","diff","male",1,499
"1903",15,"A",5,33,"neg","same","male",1,415
"1904",15,"A",5,34,"pos","same","male",1,891
"1905",15,"A",5,35,"pos","diff","male",1,452
"1906",15,"A",5,36,"pos","same","male",1,472
"1907",15,"A",5,37,"pos","same","male",1,334
"1908",15,"A",5,38,"neu","diff","male",1,538
"1909",15,"A",5,39,"neu","diff","male",0,510
"1910",15,"A",5,40,"neg","diff","male",1,540
"1911",15,"A",5,41,"neu","same","male",1,800
"1912",15,"A",5,42,"neu","diff","male",1,1210
"1913",15,"A",5,43,"neu","same","male",1,675
"1914",15,"A",5,44,"neg","diff","male",1,385
"1915",15,"A",5,45,"neu","same","male",1,568
"1916",15,"A",5,46,"neg","same","male",1,401
"1917",15,"A",5,47,"neu","same","male",1,425
"1918",15,"A",5,48,"neg","same","male",1,584
"1919",15,"A",5,49,"neu","same","male",1,627
"1920",15,"A",5,50,"neg","same","male",1,362
"1921",15,"A",5,51,"neg","diff","male",1,731
"1922",15,"A",5,52,"pos","diff","male",1,519
"1923",15,"A",5,53,"neg","same","male",1,824
"1924",15,"A",5,54,"pos","same","male",1,487
"1925",15,"A",5,55,"neg","same","male",1,432
"1926",15,"A",6,1,"pos","same","male",0,NA
"1927",15,"A",6,2,"pos","same","male",0,NA
"1928",15,"A",6,3,"pos","same","male",1,418
"1929",15,"A",6,4,"pos","same","male",1,430
"1930",15,"A",6,5,"pos","same","male",1,428
"1931",15,"A",6,6,"neg","diff","male",1,395
"1932",15,"A",6,7,"neu","diff","male",1,545
"1933",15,"A",6,8,"neg","same","male",1,488
"1934",15,"A",6,9,"neu","same","male",1,417
"1935",15,"A",6,10,"neg","same","male",1,701
"1936",15,"A",6,11,"neu","same","male",1,784
"1937",15,"A",6,12,"pos","diff","male",1,519
"1938",15,"A",6,13,"neu","same","male",1,392
"1939",15,"A",6,14,"pos","same","male",1,527
"1940",15,"A",6,15,"neg","diff","male",1,688
"1941",15,"A",6,16,"pos","same","male",1,321
"1942",15,"A",6,17,"pos","diff","male",1,842
"1943",15,"A",6,18,"neu","diff","male",1,507
"1944",15,"A",6,19,"pos","same","male",1,538
"1945",15,"A",6,20,"pos","diff","male",0,638
"1946",15,"A",6,21,"neg","diff","male",1,471
"1947",15,"A",6,22,"neu","diff","male",1,701
"1948",15,"A",6,23,"neg","same","male",1,417
"1949",15,"A",6,24,"neu","same","male",1,621
"1950",15,"A",6,25,"pos","diff","male",1,433
"1951",15,"A",6,26,"neu","same","male",1,527
"1952",15,"A",6,27,"pos","same","male",1,400
"1953",15,"A",6,28,"neg","diff","male",1,425
"1954",15,"A",6,29,"pos","same","male",1,488
"1955",15,"A",6,30,"neg","same","male",1,481
"1956",15,"A",6,31,"pos","same","male",1,394
"1957",15,"A",6,32,"pos","diff","male",1,481
"1958",15,"A",6,33,"pos","same","male",1,410
"1959",15,"A",6,34,"pos","same","male",1,467
"1960",15,"A",6,35,"neg","diff","male",1,585
"1961",15,"A",6,36,"pos","same","male",1,376
"1962",15,"A",6,37,"neg","same","male",1,748
"1963",15,"A",6,38,"neu","diff","male",1,874
"1964",15,"A",6,39,"pos","diff","male",1,449
"1965",15,"A",6,40,"neu","same","male",1,354
"1966",15,"A",6,41,"neu","diff","male",1,400
"1967",15,"A",6,42,"neg","diff","male",1,569
"1968",15,"A",6,43,"neu","same","male",1,883
"1969",15,"A",6,44,"neu","diff","male",1,459
"1970",15,"A",6,45,"neg","diff","male",1,687
"1971",15,"A",6,46,"pos","diff","male",0,464
"1972",15,"A",6,47,"neg","same","male",1,772
"1973",15,"A",6,48,"neu","diff","male",0,487
"1974",15,"A",6,49,"neg","same","male",1,1217
"1975",15,"A",6,50,"neu","same","male",1,893
"1976",15,"A",6,51,"neg","same","male",1,1433
"1977",15,"A",6,52,"neg","diff","male",0,NA
"1978",15,"A",6,53,"neu","diff","male",0,787
"1979",15,"A",6,54,"pos","diff","male",0,841
"1980",15,"A",6,55,"pos","diff","male",1,891
"1981",16,"A",1,1,"pos","same","male",0,NA
"1982",16,"A",1,2,"neg","same","male",0,NA
"1983",16,"A",1,3,"neu","diff","male",1,873
"1984",16,"A",1,4,"neu","diff","male",0,NA
"1985",16,"A",1,5,"neu","same","male",0,NA
"1986",16,"A",1,6,"pos","diff","male",0,NA
"1987",16,"A",1,7,"neu","same","male",1,1501
"1988",16,"A",1,8,"neu","diff","male",1,1402
"1989",16,"A",1,9,"neg","diff","male",0,NA
"1990",16,"A",1,10,"neu","same","male",0,NA
"1991",16,"A",1,11,"neu","diff","male",0,NA
"1992",16,"A",1,12,"neu","same","male",0,NA
"1993",16,"A",1,13,"neg","diff","male",0,NA
"1994",16,"A",1,14,"neu","same","male",0,NA
"1995",16,"A",1,15,"neg","same","male",1,1322
"1996",16,"A",1,16,"neg","diff","male",1,812
"1997",16,"A",1,17,"pos","diff","male",1,952
"1998",16,"A",1,18,"neu","diff","male",1,1246
"1999",16,"A",1,19,"neg","diff","male",1,912
"2000",16,"A",1,20,"neu","same","male",1,879
"2001",16,"A",1,21,"pos","diff","male",1,952
"2002",16,"A",1,22,"pos","diff","male",1,1470
"2003",16,"A",1,23,"pos","same","male",1,1421
"2004",16,"A",1,24,"pos","same","male",0,1329
"2005",16,"A",1,25,"pos","same","male",1,1123
"2006",16,"A",1,26,"pos","same","male",1,828
"2007",16,"A",1,27,"neu","diff","male",1,1099
"2008",16,"A",1,28,"neu","diff","male",1,1119
"2009",16,"A",1,29,"pos","diff","male",0,NA
"2010",16,"A",1,30,"pos","diff","male",0,NA
"2011",16,"A",1,31,"pos","same","male",1,1145
"2012",16,"A",1,32,"pos","same","male",0,NA
"2013",16,"A",1,33,"neu","diff","male",1,1167
"2014",16,"A",1,34,"neg","diff","male",1,913
"2015",16,"A",1,35,"neg","diff","male",1,1407
"2016",16,"A",1,36,"pos","diff","male",0,881
"2017",16,"A",1,37,"neu","diff","male",1,938
"2018",16,"A",1,38,"pos","same","male",1,734
"2019",16,"A",1,39,"neu","same","male",1,1034
"2020",16,"A",1,40,"pos","same","male",1,673
"2021",16,"A",1,41,"neu","same","male",1,655
"2022",16,"A",1,42,"pos","same","male",1,731
"2023",16,"A",1,43,"neg","diff","male",1,660
"2024",16,"A",1,44,"pos","same","male",1,832
"2025",16,"A",1,45,"neu","diff","male",1,959
"2026",16,"A",1,46,"pos","same","male",1,792
"2027",16,"A",1,47,"neg","diff","male",1,943
"2028",16,"A",1,48,"neu","diff","male",1,818
"2029",16,"A",1,49,"neg","same","male",1,1166
"2030",16,"A",1,50,"neu","same","male",1,848
"2031",16,"A",1,51,"neg","same","male",1,1073
"2032",16,"A",1,52,"pos","diff","male",1,1343
"2033",16,"A",1,53,"neg","same","male",1,899
"2034",16,"A",1,54,"neg","diff","male",1,1103
"2035",16,"A",1,55,"neu","diff","male",1,883
"2036",16,"A",2,1,"neu","diff","male",1,1473
"2037",16,"A",2,2,"neg","diff","male",0,NA
"2038",16,"A",2,3,"neu","same","male",0,NA
"2039",16,"A",2,4,"neg","same","male",1,930
"2040",16,"A",2,5,"neu","same","male",1,883
"2041",16,"A",2,6,"neu","diff","male",1,908
"2042",16,"A",2,7,"neu","same","male",1,907
"2043",16,"A",2,8,"neu","same","male",1,1322
"2044",16,"A",2,9,"neu","same","male",1,683
"2045",16,"A",2,10,"neg","diff","male",1,956
"2046",16,"A",2,11,"neu","same","male",1,1011
"2047",16,"A",2,12,"neg","same","male",0,NA
"2048",16,"A",2,13,"pos","diff","male",0,NA
"2049",16,"A",2,14,"neg","same","male",0,NA
"2050",16,"A",2,15,"neu","diff","male",1,1386
"2051",16,"A",2,16,"neu","diff","male",1,969
"2052",16,"A",2,17,"pos","diff","male",1,994
"2053",16,"A",2,18,"pos","diff","male",1,1169
"2054",16,"A",2,19,"pos","same","male",1,770
"2055",16,"A",2,20,"neu","diff","male",1,1075
"2056",16,"A",2,21,"pos","same","male",1,562
"2057",16,"A",2,22,"neu","same","male",1,1227
"2058",16,"A",2,23,"pos","same","male",1,970
"2059",16,"A",2,24,"neu","same","male",0,NA
"2060",16,"A",2,25,"pos","same","male",1,1385
"2061",16,"A",2,26,"neu","same","male",0,NA
"2062",16,"A",2,27,"pos","same","male",1,1135
"2063",16,"A",2,28,"neu","same","male",1,971
"2064",16,"A",2,29,"neu","diff","male",1,1316
"2065",16,"A",2,30,"neu","same","male",0,NA
"2066",16,"A",2,31,"neu","same","male",0,NA
"2067",16,"A",2,32,"pos","diff","male",0,NA
"2068",16,"A",2,33,"neu","same","male",1,632
"2069",16,"A",2,34,"pos","same","male",1,591
"2070",16,"A",2,35,"neg","diff","male",1,925
"2071",16,"A",2,36,"neu","diff","male",1,1150
"2072",16,"A",2,37,"neg","same","male",0,NA
"2073",16,"A",2,38,"neg","diff","male",0,NA
"2074",16,"A",2,39,"neg","same","male",1,1443
"2075",16,"A",2,40,"neg","same","male",0,NA
"2076",16,"A",2,41,"neu","diff","male",1,995
"2077",16,"A",2,42,"neg","same","male",1,1170
"2078",16,"A",2,43,"neu","same","male",0,NA
"2079",16,"A",2,44,"pos","diff","male",1,1092
"2080",16,"A",2,45,"neg","diff","male",1,904
"2081",16,"A",2,46,"pos","same","male",1,996
"2082",16,"A",2,47,"neg","same","male",1,867
"2083",16,"A",2,48,"neu","diff","male",1,1001
"2084",16,"A",2,49,"neg","same","male",1,1211
"2085",16,"A",2,50,"neg","diff","male",1,836
"2086",16,"A",2,51,"neg","same","male",0,NA
"2087",16,"A",2,52,"neg","same","male",1,1251
"2088",16,"A",2,53,"neg","same","male",1,839
"2089",16,"A",2,54,"pos","diff","male",1,1017
"2090",16,"A",2,55,"pos","diff","male",1,765
"2091",16,"A",3,1,"neu","diff","male",0,NA
"2092",16,"A",3,2,"neu","diff","male",0,NA
"2093",16,"A",3,3,"pos","diff","male",1,986
"2094",16,"A",3,4,"neg","diff","male",1,1129
"2095",16,"A",3,5,"pos","same","male",1,1026
"2096",16,"A",3,6,"neg","same","male",0,NA
"2097",16,"A",3,7,"pos","same","male",0,NA
"2098",16,"A",3,8,"neg","same","male",1,1048
"2099",16,"A",3,9,"neg","diff","male",1,994
"2100",16,"A",3,10,"neu","diff","male",1,816
"2101",16,"A",3,11,"neg","same","male",1,860
"2102",16,"A",3,12,"neg","diff","male",1,1168
"2103",16,"A",3,13,"pos","diff","male",1,962
"2104",16,"A",3,14,"neg","same","male",1,891
"2105",16,"A",3,15,"neu","diff","male",1,580
"2106",16,"A",3,16,"neu","diff","male",1,1264
"2107",16,"A",3,17,"neu","same","male",1,1348
"2108",16,"A",3,18,"neu","same","male",1,491
"2109",16,"A",3,19,"neg","diff","male",1,980
"2110",16,"A",3,20,"pos","diff","male",1,864
"2111",16,"A",3,21,"pos","diff","male",1,1156
"2112",16,"A",3,22,"pos","same","male",1,755
"2113",16,"A",3,23,"pos","same","male",0,849
"2114",16,"A",3,24,"pos","same","male",1,1042
"2115",16,"A",3,25,"pos","same","male",1,700
"2116",16,"A",3,26,"neu","diff","male",1,912
"2117",16,"A",3,27,"neg","diff","male",1,1310
"2118",16,"A",3,28,"pos","diff","male",1,669
"2119",16,"A",3,29,"neg","same","male",1,1324
"2120",16,"A",3,30,"pos","same","male",1,733
"2121",16,"A",3,31,"pos","diff","male",1,1016
"2122",16,"A",3,32,"neu","diff","male",1,1292
"2123",16,"A",3,33,"pos","same","male",1,808
"2124",16,"A",3,34,"neg","diff","male",1,1329
"2125",16,"A",3,35,"neu","diff","male",1,1491
"2126",16,"A",3,36,"neu","diff","male",1,1303
"2127",16,"A",3,37,"neg","diff","male",1,1027
"2128",16,"A",3,38,"neu","same","male",1,1162
"2129",16,"A",3,39,"neu","diff","male",1,1003
"2130",16,"A",3,40,"pos","diff","male",1,1052
"2131",16,"A",3,41,"neg","diff","male",1,1016
"2132",16,"A",3,42,"pos","same","male",0,1244
"2133",16,"A",3,43,"neg","same","male",0,NA
"2134",16,"A",3,44,"pos","same","male",1,1209
"2135",16,"A",3,45,"neg","same","male",0,NA
"2136",16,"A",3,46,"neu","diff","male",1,858
"2137",16,"A",3,47,"neg","same","male",1,1405
"2138",16,"A",3,48,"neu","same","male",1,671
"2139",16,"A",3,49,"neg","same","male",1,1245
"2140",16,"A",3,50,"neu","same","male",1,1359
"2141",16,"A",3,51,"neg","same","male",1,1000
"2142",16,"A",3,52,"neu","same","male",1,1098
"2143",16,"A",3,53,"neu","diff","male",1,1102
"2144",16,"A",3,54,"pos","diff","male",0,NA
"2145",16,"A",3,55,"neg","diff","male",0,NA
"2146",16,"A",4,1,"neu","diff","male",0,NA
"2147",16,"A",4,2,"pos","diff","male",0,NA
"2148",16,"A",4,3,"pos","diff","male",1,1287
"2149",16,"A",4,4,"neg","diff","male",1,1185
"2150",16,"A",4,5,"neu","diff","male",0,NA
"2151",16,"A",4,6,"neg","same","male",0,NA
"2152",16,"A",4,7,"neu","same","male",0,NA
"2153",16,"A",4,8,"neu","diff","male",1,1428
"2154",16,"A",4,9,"neu","same","male",0,NA
"2155",16,"A",4,10,"pos","diff","male",0,NA
"2156",16,"A",4,11,"neu","same","male",1,1389
"2157",16,"A",4,12,"neg","diff","male",1,1292
"2158",16,"A",4,13,"neu","same","male",1,904
"2159",16,"A",4,14,"neg","same","male",0,NA
"2160",16,"A",4,15,"neg","diff","male",0,NA
"2161",16,"A",4,16,"neu","diff","male",0,NA
"2162",16,"A",4,17,"neg","same","male",0,1227
"2163",16,"A",4,18,"neu","same","male",0,NA
"2164",16,"A",4,19,"neu","diff","male",0,NA
"2165",16,"A",4,20,"pos","diff","male",1,1144
"2166",16,"A",4,21,"neu","same","male",0,NA
"2167",16,"A",4,22,"pos","same","male",1,1274
"2168",16,"A",4,23,"pos","diff","male",1,1041
"2169",16,"A",4,24,"pos","same","male",1,442
"2170",16,"A",4,25,"pos","same","male",1,699
"2171",16,"A",4,26,"pos","same","male",1,1007
"2172",16,"A",4,27,"pos","same","male",1,528
"2173",16,"A",4,28,"neu","diff","male",1,929
"2174",16,"A",4,29,"pos","same","male",1,931
"2175",16,"A",4,30,"neu","same","male",1,999
"2176",16,"A",4,31,"neu","diff","male",1,1080
"2177",16,"A",4,32,"neg","diff","male",1,617
"2178",16,"A",4,33,"pos","diff","male",1,733
