sID,nFingers,trial,block,acc,rt
1,4,1,1,1,1355
1,3,2,1,1,1169
1,4,3,1,0,NA
1,5,4,1,0,NA
1,5,5,1,1,1087
1,3,6,1,1,1101
1,2,7,1,1,1166
1,4,8,1,1,1132
1,4,9,1,1,1270
1,1,10,1,1,987
1,1,11,1,1,1133
1,3,12,1,1,1152
1,3,13,1,1,1160
1,4,14,1,0,NA
1,1,15,1,0,NA
1,5,16,1,0,NA
1,5,17,1,1,1077
1,5,18,1,0,NA
1,3,19,1,0,NA
1,5,20,1,1,1008
1,4,21,1,1,1421
1,3,22,1,1,1087
1,2,23,1,1,1140
1,3,24,1,1,1123
1,2,25,1,1,1076
1,4,26,1,1,1098
1,5,27,1,1,2003
1,2,28,1,1,1082
1,5,29,1,1,1137
1,5,30,1,1,1093
1,1,31,1,1,1137
1,5,32,1,1,1020
1,4,33,1,1,1283
1,2,34,1,1,1236
1,3,35,1,1,1154
1,5,36,1,0,NA
1,4,37,1,1,1076
1,2,38,1,0,NA
1,1,39,1,0,NA
1,2,40,1,1,1135
1,1,41,1,0,NA
1,4,42,1,1,1345
1,3,43,1,1,1515
1,2,44,1,1,1160
1,2,45,1,1,1002
1,3,46,1,1,1105
1,2,47,1,0,NA
1,1,48,1,0,NA
1,5,49,1,0,NA
1,2,50,1,0,NA
1,2,51,1,1,1062
1,2,52,1,1,1107
1,4,53,1,1,1190
1,1,54,1,1,1616
1,2,55,1,1,1288
1,1,56,1,0,NA
1,5,57,1,1,1082
1,5,58,1,1,1081
1,3,59,1,0,NA
1,2,60,1,1,1045
1,1,61,1,1,1300
1,2,62,1,1,1304
1,1,63,1,1,948
1,3,64,1,1,1304
1,3,65,1,1,1074
1,1,66,1,1,1095
1,5,67,1,0,NA
1,3,68,1,1,959
1,5,69,1,1,999
1,3,70,1,1,1191
1,3,71,1,0,NA
1,4,72,1,1,1729
1,5,73,1,1,905
1,2,74,1,0,NA
1,2,75,1,1,1253
1,5,76,1,1,1334
1,2,77,1,1,1072
1,2,78,1,1,1200
1,3,79,1,0,NA
1,1,80,1,0,NA
1,5,81,1,1,1166
1,1,82,1,0,NA
1,5,83,1,0,NA
1,3,84,1,1,1099
1,1,85,1,0,NA
1,3,86,1,0,NA
1,4,87,1,1,844
1,1,88,1,1,1485
1,4,89,1,1,1512
1,2,90,1,0,NA
1,1,91,1,1,1384
1,4,92,1,0,NA
1,3,93,1,0,NA
1,1,94,1,0,NA
1,5,95,1,0,NA
1,4,96,1,1,1359
1,3,97,1,1,974
1,3,98,1,1,1193
1,3,99,1,1,1187
1,5,100,1,0,NA
1,2,101,1,0,NA
1,3,102,1,1,1133
1,4,103,1,1,1145
1,5,104,1,1,1131
1,2,105,1,1,1095
1,4,106,1,1,1305
1,1,107,1,1,1196
1,3,108,1,1,1000
1,2,109,1,1,1564
1,4,110,1,1,966
1,4,111,1,0,NA
1,2,112,1,1,1242
1,5,113,1,1,1099
1,2,114,1,1,1226
1,1,115,1,0,NA
1,2,116,1,1,1072
1,1,117,1,1,1214
1,4,118,1,1,1208
1,5,119,1,0,NA
1,5,120,1,1,1002
1,1,121,1,1,1000
1,5,122,1,1,1346
1,1,123,1,0,NA
1,1,124,1,0,NA
1,2,125,1,1,1062
1,2,126,1,1,1113
1,2,127,1,1,1160
1,4,128,1,1,1121
1,3,129,1,1,985
1,1,130,1,0,NA
1,1,131,1,1,986
1,3,132,1,1,1206
1,2,133,1,1,1216
1,2,134,1,1,1366
1,1,135,1,1,1276
1,1,136,1,1,1122
1,5,137,1,1,1064
1,3,138,1,1,893
1,4,139,1,1,1103
1,5,140,1,1,1051
1,5,141,1,1,1033
1,3,142,1,1,1315
1,5,143,1,0,NA
1,1,144,1,1,1319
1,1,145,1,1,1064
1,3,146,1,1,1146
1,4,147,1,1,1127
1,5,148,1,1,1076
1,5,149,1,0,NA
1,3,150,1,0,NA
1,1,151,1,1,1183
1,4,152,1,1,1058
1,3,153,1,1,1315
1,1,154,1,0,NA
1,2,155,1,1,1060
1,3,156,1,1,1081
1,4,157,1,0,NA
1,1,158,1,0,NA
1,5,159,1,1,1365
1,2,160,1,1,1158
1,2,161,1,1,1156
1,5,162,1,0,NA
1,1,163,1,1,1026
1,5,164,1,1,1111
1,4,165,1,0,NA
1,2,166,1,0,NA
1,5,167,1,0,NA
1,2,168,1,1,1167
1,4,169,1,1,1634
1,4,170,1,1,1079
1,4,171,1,1,1085
1,2,172,1,1,1297
1,5,173,1,1,1134
1,5,174,1,1,1443
1,4,175,1,1,1179
1,5,176,1,1,1122
1,2,177,1,1,1108
1,3,178,1,1,1074
1,3,179,1,1,1160
1,1,180,1,0,NA
1,4,181,1,1,1179
1,4,182,1,1,842
1,2,183,1,0,NA
1,2,184,1,0,NA
1,1,185,1,1,1100
1,5,186,1,1,1120
1,1,187,1,1,1117
1,3,188,1,1,1269
1,3,189,1,1,1060
1,3,190,1,1,1062
1,4,191,1,0,NA
1,1,192,1,1,1239
1,2,193,1,1,1216
1,2,194,1,0,NA
1,3,195,1,0,NA
1,3,196,1,1,1381
1,5,197,1,1,1140
1,3,198,1,1,1183
1,5,199,1,0,NA
1,3,200,2,1,1098
1,2,201,2,0,NA
1,5,202,2,0,NA
1,5,203,2,1,1056
1,4,204,2,1,1122
1,3,205,2,1,1122
1,4,206,2,1,898
1,3,207,2,1,1031
1,1,208,2,1,1321
1,5,209,2,0,NA
1,1,210,2,1,1305
1,5,211,2,1,1032
1,1,212,2,1,1201
1,5,213,2,1,1093
1,3,214,2,1,1067
1,4,215,2,0,NA
1,1,216,2,1,1119
1,2,217,2,1,1296
1,5,218,2,0,NA
1,3,219,2,1,1069
1,5,220,2,1,846
1,3,221,2,1,1058
1,5,222,2,1,1160
1,3,223,2,1,1301
1,5,224,2,1,1085
1,2,225,2,1,1182
1,3,226,2,1,1198
1,5,227,2,0,NA
1,3,228,2,1,966
1,1,229,2,0,NA
1,5,230,2,1,87
1,3,231,2,1,960
1,4,232,2,1,1196
1,4,233,2,1,1279
1,1,234,2,1,1145
1,4,235,2,1,1295
1,2,236,2,1,1134
1,4,237,2,1,1199
1,3,238,2,1,1176
1,2,239,2,1,1193
1,3,240,2,1,1122
1,4,241,2,1,1111
1,1,242,2,0,NA
1,2,243,2,1,1360
1,1,244,2,0,NA
1,4,245,2,1,1254
1,4,246,2,1,998
1,4,247,2,0,NA
1,5,248,2,1,1172
1,2,249,2,1,1144
1,1,250,2,1,1314
1,1,251,2,1,1137
1,3,252,2,0,NA
1,2,253,2,0,NA
1,5,254,2,0,NA
1,5,255,2,1,1174
1,4,256,2,0,NA
1,5,257,2,0,NA
1,2,258,2,0,NA
1,2,259,2,1,1214
1,4,260,2,1,1075
1,5,261,2,0,NA
1,3,262,2,0,NA
1,4,263,2,1,1052
1,2,264,2,0,NA
1,1,265,2,0,NA
1,2,266,2,0,NA
1,5,267,2,0,NA
1,2,268,2,1,1041
1,2,269,2,1,1229
1,4,270,2,1,1074
1,1,271,2,0,NA
1,2,272,2,1,1172
1,3,273,2,1,1482
1,2,274,2,0,NA
1,4,275,2,0,NA
1,4,276,2,1,1224
1,2,277,2,0,NA
1,1,278,2,0,NA
1,2,279,2,1,890
1,3,280,2,1,1177
1,2,281,2,1,1083
1,1,282,2,1,1161
1,2,283,2,1,963
1,5,284,2,1,1202
1,5,285,2,1,1134
1,3,286,2,1,1123
1,3,287,2,0,NA
1,4,288,2,0,NA
1,1,289,2,1,1099
1,3,290,2,1,1302
1,3,291,2,0,NA
1,5,292,2,1,1135
1,1,293,2,0,NA
1,2,294,2,1,1057
1,1,295,2,0,NA
1,5,296,2,0,NA
1,1,297,2,0,NA
1,5,298,2,1,1245
1,4,299,2,1,1142
1,5,300,2,1,1077
1,4,301,2,1,1240
1,5,302,2,0,NA
1,1,303,2,1,1246
1,4,304,2,1,1106
1,4,305,2,1,1192
1,4,306,2,1,1196
1,1,307,2,1,1180
1,3,308,2,1,964
1,1,309,2,1,1156
1,4,310,2,1,1042
1,5,311,2,1,1015
1,3,312,2,1,1036
1,4,313,2,1,704
1,3,314,2,1,923
1,5,315,2,0,NA
1,2,316,2,0,NA
1,3,317,2,1,1043
1,2,318,2,0,NA
1,3,319,2,1,1020
1,4,320,2,0,NA
1,4,321,2,1,768
1,2,322,2,0,NA
1,3,323,2,0,NA
1,1,324,2,1,1024
1,4,325,2,1,1376
1,1,326,2,0,NA
1,4,327,2,0,NA
1,3,328,2,1,1051
1,1,329,2,1,1023
1,2,330,2,1,1041
1,1,331,2,1,1069
1,1,332,2,1,1109
1,4,333,2,0,NA
1,5,334,2,0,NA
1,4,335,2,0,NA
1,4,336,2,1,862
1,3,337,2,0,NA
1,3,338,2,1,1086
1,1,339,2,1,1219
1,5,340,2,1,1125
1,4,341,2,0,NA
1,1,342,2,1,1186
1,1,343,2,0,NA
1,1,344,2,1,1062
1,3,345,2,1,1136
1,4,346,2,1,866
1,1,347,2,0,NA
1,1,348,2,1,1044
1,5,349,2,1,882
1,1,350,2,1,1142
1,5,351,2,0,NA
1,2,352,2,1,290
1,2,353,2,0,997
1,5,354,2,1,1055
1,2,355,2,1,1755
1,4,356,2,1,1897
1,2,357,2,1,1287
1,1,358,2,1,1258
1,1,359,2,1,1270
1,5,360,2,1,1089
1,1,361,2,1,1578
1,5,362,2,0,NA
1,4,363,2,0,NA
1,4,364,2,1,1202
1,5,365,2,1,1204
1,1,366,2,0,NA
1,4,367,2,1,1135
1,4,368,2,1,1050
1,3,369,2,0,NA
1,4,370,2,0,NA
1,1,371,2,0,NA
1,2,372,2,1,1241
1,3,373,2,1,1062
1,2,374,2,1,1517
1,3,375,2,1,1213
1,3,376,2,1,1180
1,3,377,2,1,1257
1,3,378,2,1,1160
1,5,379,2,0,NA
1,1,380,2,0,NA
1,3,381,2,1,1003
1,2,382,2,1,993
1,2,383,2,1,1172
1,1,384,2,0,NA
1,4,385,2,1,1644
1,4,386,2,1,1536
1,1,387,2,0,NA
1,4,388,2,0,NA
1,5,389,2,1,1345
1,2,390,2,1,1015
1,1,391,2,1,1222
1,3,392,2,1,1029
1,5,393,2,1,916
1,3,394,2,1,907
1,2,395,2,1,1301
1,4,396,2,1,1086
1,4,397,2,1,1337
1,4,398,2,0,NA
1,2,399,2,0,NA
1,2,400,3,1,1216
2,5,1,1,1,1641
2,5,2,1,1,1125
2,3,3,1,1,1892
2,2,4,1,1,1746
2,3,5,1,1,1627
2,1,6,1,1,1182
2,4,7,1,1,1239
2,2,8,1,1,1465
2,3,9,1,1,1806
2,3,10,1,1,1527
2,3,11,1,1,2423
2,3,12,1,1,1506
2,3,13,1,1,1406
2,2,14,1,1,1344
2,2,15,1,1,1383
2,2,16,1,1,1045
2,2,17,1,1,1318
2,3,18,1,1,1213
2,1,19,1,1,1077
2,1,20,1,1,1447
2,1,21,1,1,1100
2,1,22,1,1,1092
2,5,23,1,1,1384
2,2,24,1,1,1287
2,1,25,1,1,963
2,2,26,1,1,2201
2,1,27,1,1,1596
2,1,28,1,1,1194
2,3,29,1,1,2227
2,5,30,1,1,1607
2,1,31,1,1,1182
2,5,32,1,1,1662
2,2,33,1,1,1843
2,1,34,1,1,1200
2,2,35,1,1,1283
2,1,36,1,1,1175
2,1,37,1,1,818
2,2,38,1,1,1451
2,1,39,1,1,1302
2,5,40,1,1,1434
2,4,41,1,1,1336
2,5,42,1,1,1276
2,4,43,1,1,1603
2,1,44,1,1,1225
2,3,45,1,1,1877
2,5,46,1,1,1603
2,1,47,1,1,1076
2,1,48,1,1,1111
2,2,49,1,1,1843
2,4,50,1,1,1863
2,1,51,1,1,1200
2,3,52,1,1,2347
2,4,53,1,1,1566
2,1,54,1,1,1225
2,3,55,1,1,1490
2,1,56,1,1,1182
2,4,57,1,1,1185
2,5,58,1,1,1385
2,5,59,1,1,1806
2,4,60,1,1,1437
2,1,61,1,1,1214
2,2,62,1,1,1162
2,5,63,1,1,1684
2,4,64,1,1,1735
2,2,65,1,1,1431
2,4,66,1,1,1182
2,2,67,1,1,1359
2,2,68,1,1,1325
2,2,69,1,1,1767
2,2,70,1,1,1266
2,4,71,1,1,1414
2,3,72,1,1,1406
2,2,73,1,1,1344
2,3,74,1,1,1925
2,2,75,1,1,1843
2,3,76,1,1,1464
2,5,77,1,1,1322
2,3,78,1,1,1506
2,3,79,1,1,1862
2,5,80,1,1,1624
2,3,81,1,1,1378
2,2,82,1,1,1327
2,5,83,1,1,1902
2,5,84,1,1,1422
2,1,85,1,1,1165
2,4,86,1,1,1603
2,3,87,1,1,1806
2,5,88,1,1,1616
2,3,89,1,1,1873
2,1,90,1,1,955
2,4,91,1,1,1204
2,2,92,1,1,1482
2,3,93,1,1,2347
2,2,94,1,1,1285
2,3,95,1,1,1927
2,1,96,1,1,1175
2,5,97,1,1,1402
2,2,98,1,1,1517
2,2,99,1,1,1717
2,2,100,1,1,1398
2,1,101,1,1,1214
2,1,102,1,1,1076
2,1,103,1,1,1126
2,3,104,1,1,1490
2,2,105,1,1,1801
2,1,106,1,1,1596
2,1,107,1,1,1243
2,1,108,1,1,1065
2,3,109,1,1,1213
2,3,110,1,1,1506
2,2,111,1,1,1327
2,2,112,1,1,1843
2,3,113,1,1,1763
2,5,114,1,1,1384
2,5,115,1,1,1259
2,4,116,1,1,1873
2,3,117,1,1,2423
2,4,118,1,1,1344
2,4,119,1,1,1414
2,2,120,1,1,1717
2,3,121,1,1,2079
2,5,122,1,1,1162
2,5,123,1,1,1978
2,1,124,1,1,1302
2,4,125,1,1,2639
2,5,126,1,1,1533
2,5,127,1,1,1304
2,2,128,1,1,1227
2,5,129,1,1,1526
2,4,130,1,1,1447
2,4,131,1,1,1574
2,2,132,1,1,1764
2,2,133,1,1,1408
2,1,134,1,1,1090
2,5,135,1,1,1646
2,2,136,1,1,1829
2,3,137,1,1,1268
2,2,138,1,1,1227
2,2,139,1,1,1749
2,4,140,1,1,1615
2,1,141,1,1,1581
2,5,142,1,1,2607
2,1,143,1,1,1795
2,3,144,1,1,1531
2,3,145,1,1,1310
2,4,146,1,1,1239
2,5,147,1,1,1616
2,3,148,1,1,2188
2,4,149,1,1,963
2,2,150,1,1,2806
2,2,151,1,1,1152
2,1,152,1,1,1527
2,3,153,1,1,1527
2,3,154,1,1,1490
2,4,155,1,1,1574
2,2,156,1,1,1605
2,5,157,1,1,1863
2,1,158,1,1,963
2,2,159,1,1,1829
2,5,160,1,1,2607
2,2,161,1,1,1359
2,2,162,1,1,2052
2,3,163,1,1,1714
2,4,164,1,1,1481
2,5,165,1,1,1806
2,1,166,1,1,1105
2,1,167,1,1,1103
2,1,168,1,1,1133
2,2,169,1,1,1383
2,1,170,1,1,1109
2,4,171,1,1,2105
2,1,172,1,1,1194
2,2,173,1,1,1338
2,3,174,1,1,2345
2,4,175,1,1,1429
2,5,176,1,1,1146
2,4,177,1,1,1586
2,5,178,1,1,1313
2,1,179,1,1,1156
2,5,180,1,1,1902
2,2,181,1,1,2185
2,2,182,1,1,1321
2,1,183,1,1,1043
2,5,184,1,1,1646
2,5,185,1,1,1524
2,3,186,1,1,2168
2,5,187,1,1,1457
2,4,188,1,1,1584
2,3,189,1,1,1495
2,1,190,1,1,1374
2,2,191,1,1,1162
2,5,192,1,1,1682
2,4,193,1,1,1574
2,3,194,1,1,2423
2,2,195,1,1,1338
2,1,196,1,1,1068
2,2,197,1,1,1067
2,3,198,1,1,1800
2,2,199,1,1,1193
2,5,200,2,1,1413
2,3,201,2,1,1987
2,4,202,2,1,1546
2,1,203,2,1,1085
2,1,204,2,1,1046
2,5,205,2,1,1945
2,3,206,2,1,1687
2,5,207,2,1,1259
2,1,208,2,1,1297
2,3,209,2,1,2163
2,4,210,2,1,1286
2,2,211,2,1,1127
2,1,212,2,1,1076
2,4,213,2,1,1640
2,1,214,2,1,2202
2,2,215,2,1,1527
2,2,216,2,1,1483
2,1,217,2,1,1147
2,3,218,2,1,1877
2,2,219,2,1,1079
2,1,220,2,1,1111
2,5,221,2,1,1623
2,1,222,2,1,1146
2,4,223,2,0,NA
2,1,224,2,1,1086
2,4,225,2,1,1620
2,4,226,2,1,1457
2,2,227,2,1,1184
2,3,228,2,1,2444
2,5,229,2,1,1539
2,3,230,2,1,2192
2,4,231,2,1,963
2,4,232,2,1,2523
2,3,233,2,1,1378
2,5,234,2,1,1236
2,1,235,2,1,1092
2,3,236,2,1,2054
2,4,237,2,1,1864
2,4,238,2,1,2164
2,5,239,2,1,1257
2,5,240,2,1,1362
2,2,241,2,1,1801
2,4,242,2,1,1335
2,1,243,2,1,1092
2,4,244,2,1,1475
2,5,245,2,1,1457
2,4,246,2,1,1346
2,2,247,2,1,1121
2,2,248,2,1,2049
2,4,249,2,1,1546
2,4,250,2,1,2442
2,1,251,2,1,1200
2,1,252,2,1,1065
2,1,253,2,1,1206
2,2,254,2,1,1234
2,2,255,2,1,1283
2,1,256,2,1,1182
2,5,257,2,1,2025
2,3,258,2,1,1157
2,4,259,2,1,1306
2,4,260,2,1,2442
2,1,261,2,1,1115
2,2,262,2,1,2806
2,4,263,2,1,1272
2,4,264,2,1,1237
2,3,265,2,1,1725
2,3,266,2,1,1189
2,5,267,2,1,2345
2,3,268,2,1,2227
2,4,269,2,1,2442
2,4,270,2,1,2021
2,1,271,2,1,1374
2,5,272,2,1,1663
2,1,273,2,1,1111
2,1,274,2,1,1108
2,4,275,2,1,1329
2,3,276,2,1,1241
2,4,277,2,1,1695
2,5,278,2,1,1236
2,1,279,2,1,1016
2,3,280,2,1,1868
2,4,281,2,1,1640
2,2,282,2,1,1162
2,2,283,2,1,1227
2,3,284,2,1,1800
2,2,285,2,1,1266
2,3,286,2,1,1274
2,2,287,2,1,1746
2,5,288,2,1,2103
2,5,289,2,1,1840
2,3,290,2,1,1342
2,3,291,2,1,1290
2,3,292,2,1,2054
2,5,293,2,1,1473
2,4,294,2,1,1167
2,1,295,2,1,1065
2,4,296,2,1,1974
2,2,297,2,1,1384
2,4,298,2,1,1475
2,2,299,2,1,1439
2,5,300,2,1,1626
2,1,301,2,1,1164
2,5,302,2,1,2604
2,4,303,2,1,1984
2,3,304,2,1,1290
2,2,305,2,1,1483
2,4,306,2,1,1984
2,2,307,2,1,1408
2,3,308,2,1,2054
2,5,309,2,1,1616
2,4,310,2,1,1802
2,3,311,2,1,2444
2,5,312,2,1,1362
2,5,313,2,1,1587
2,1,314,2,1,1527
2,5,315,2,1,1722
2,2,316,2,1,1184
2,3,317,2,1,2163
2,5,318,2,1,2607
2,5,319,2,1,2363
2,4,320,2,1,1344
2,5,321,2,1,1199
2,3,322,2,1,1726
2,5,323,2,1,1285
2,1,324,2,1,1165
2,3,325,2,1,1457
2,4,326,2,1,1864
2,2,327,2,1,1224
2,2,328,2,1,1180
2,3,329,2,1,2444
2,5,330,2,1,1428
2,4,331,2,1,1360
2,2,332,2,1,1325
2,4,333,2,1,1329
2,3,334,2,1,1763
2,1,335,2,1,1197
2,2,336,2,1,1688
2,3,337,2,1,1523
2,5,338,2,1,1385
2,1,339,2,1,1085
2,1,340,2,1,963
2,2,341,2,1,1764
2,1,342,2,1,1109
2,2,343,2,1,2049
2,5,344,2,1,1199
2,2,345,2,1,1344
2,1,346,2,1,1123
2,5,347,2,1,1615
2,3,348,2,1,1310
2,5,349,2,1,1422
2,2,350,2,1,2806
2,5,351,2,1,1539
2,3,352,2,1,2726
2,1,353,2,1,1014
2,5,354,2,1,1646
2,4,355,2,1,1204
2,1,356,2,1,1297
2,4,357,2,1,2164
2,3,358,2,1,1402
2,3,359,2,1,1927
2,4,360,2,1,2105
2,3,361,2,1,1308
2,1,362,2,1,1164
2,2,363,2,1,1512
2,5,364,2,1,1139
2,5,365,2,1,1377
2,5,366,2,1,1617
2,1,367,2,1,1139
2,1,368,2,1,1225
2,2,369,2,1,1121
2,3,370,2,1,1308
2,2,371,2,1,1451
2,1,372,2,1,1225
2,1,373,2,1,1108
2,1,374,2,1,1384
2,1,375,2,1,963
2,4,376,2,1,963
2,1,377,2,1,1178
2,4,378,2,1,1414
2,4,379,2,1,1638
2,3,380,2,1,1245
2,2,381,2,1,1465
2,3,382,2,1,1525
2,5,383,2,1,1829
2,1,384,2,1,1109
2,3,385,2,1,1514
2,3,386,2,1,1495
2,5,387,2,1,1285
2,4,388,2,1,1286
2,5,389,2,1,1682
2,3,390,2,1,1635
2,5,391,2,1,1257
2,2,392,2,1,1180
2,1,393,2,1,1156
2,3,394,2,1,2444
2,3,395,2,1,1806
2,5,396,2,1,1146
2,5,397,2,1,1829
2,2,398,2,1,1355
2,1,399,2,1,1297
2,5,400,3,1,1829
2,4,401,3,1,1640
2,2,402,3,1,1482
2,5,403,3,1,2096
2,4,404,3,1,1444
2,4,405,3,1,1625
2,1,406,3,1,1016
2,4,407,3,1,1185
2,1,408,3,1,1105
2,4,409,3,1,1503
2,3,410,3,1,1245
2,3,411,3,1,1763
2,2,412,3,1,1605
2,3,413,3,1,1464
2,3,414,3,1,1716
2,2,415,3,1,1483
2,3,416,3,1,1987
2,1,417,3,1,2202
2,1,418,3,1,1043
2,1,419,3,1,1163
2,1,420,3,1,1447
2,1,421,3,1,1126
2,4,422,3,1,1615
2,1,423,3,1,875
2,4,424,3,1,1850
2,1,425,3,1,1214
2,5,426,3,1,1829
2,1,427,3,1,1118
2,3,428,3,1,2456
2,4,429,3,1,1185
2,3,430,3,1,1457
2,1,431,3,1,1057
2,4,432,3,1,1620
2,3,433,3,1,1708
2,1,434,3,1,1106
2,2,435,3,1,1517
2,1,436,3,1,1100
2,5,437,3,1,1280
2,4,438,3,1,2523
2,2,439,3,1,1492
2,1,440,3,1,1026
2,2,441,3,1,2473
2,5,442,3,1,1624
2,3,443,3,1,1490
2,5,444,3,1,1617
2,4,445,3,1,1566
2,2,446,3,1,1344
2,1,447,3,1,1106
2,5,448,3,1,1646
2,5,449,3,1,1127
2,4,450,3,1,1850
2,1,451,3,1,1164
2,3,452,3,1,2168
2,2,453,3,1,1571
2,3,454,3,1,1565
2,5,455,3,1,1457
2,5,456,3,1,1413
2,4,457,3,1,1584
2,1,458,3,1,1065
2,1,459,3,1,1367
2,5,460,3,1,1646
2,5,461,3,1,1840
2,5,462,3,1,1345
2,3,463,3,1,1318
2,5,464,3,1,1176
2,1,465,3,1,1945
2,5,466,3,1,1186
2,3,467,3,1,1566
2,4,468,3,1,2544
2,2,469,3,1,1227
2,5,470,3,1,1641
2,1,471,3,1,1126
2,5,472,3,1,1422
2,3,473,3,1,2726
2,3,474,3,1,1927
2,4,475,3,1,1850
2,5,476,3,1,1454
2,2,477,3,1,2096
2,5,478,3,1,1313
2,5,479,3,1,2025
2,3,480,3,1,1181
2,4,481,3,1,1546
2,5,482,3,1,1615
2,1,483,3,1,955
2,2,484,3,1,1180
2,5,485,3,1,1726
2,4,486,3,0,NA
2,4,487,3,1,1615
2,2,488,3,1,1439
2,1,489,3,1,1126
2,1,490,3,1,1065
2,5,491,3,1,1384
2,3,492,3,1,1925
2,1,493,3,1,1194
2,3,494,3,1,2042
2,3,495,3,1,1633
2,2,496,3,1,1482
2,4,497,3,1,2544
2,4,498,3,1,2639
2,1,499,3,1,1197
2,5,500,3,1,1236
2,3,501,3,1,1925
2,4,502,3,1,1475
2,3,503,3,1,1403
2,1,504,3,1,1194
2,1,505,3,1,1200
2,1,506,3,1,1133
2,5,507,3,1,1613
2,5,508,3,1,1662
2,4,509,3,1,1546
2,4,510,3,1,1352
2,1,511,3,1,1178
2,3,512,3,1,1189
2,1,513,3,1,818
2,4,514,3,1,1802
2,3,515,3,1,1556
2,2,516,3,1,1384
2,4,517,3,1,1506
2,3,518,3,1,1726
2,3,519,3,1,1725
2,5,520,3,1,1434
2,1,521,3,1,1016
2,4,522,3,1,1344
2,2,523,3,1,1482
2,1,524,3,1,1103
2,1,525,3,1,1123
2,5,526,3,1,1587
2,5,527,3,1,1623
2,3,528,3,1,2054
2,2,529,3,1,2264
2,3,530,3,1,1437
2,1,531,3,1,1146
2,4,532,3,1,1204
2,1,533,3,1,1214
2,1,534,3,1,1090
2,2,535,3,1,1325
2,4,536,3,1,1873
2,5,537,3,1,1623
2,5,538,3,1,1307
2,5,539,3,1,1526
2,3,540,3,1,1764
2,5,541,3,1,1524
2,4,542,3,1,1620
2,3,543,3,1,1290
2,5,544,3,1,2103
2,3,545,3,1,1675
2,4,546,3,1,1667
2,3,547,3,1,1402
2,4,548,3,1,1638
2,1,549,3,1,1111
2,5,550,3,1,1539
2,4,551,3,1,1873
2,3,552,3,1,1157
2,4,553,3,0,NA
2,1,554,3,1,1098
2,1,555,3,1,1164
2,2,556,3,1,2264
2,5,557,3,1,2127
2,1,558,3,1,1374
2,3,559,3,1,1347
2,5,560,3,1,1146
2,3,561,3,1,1566
2,5,562,3,1,1163
2,2,563,3,1,1492
2,5,564,3,1,1979
2,1,565,3,1,1147
2,1,566,3,1,1124
2,3,567,3,1,1318
2,4,568,3,1,1416
2,5,569,3,1,1448
2,1,570,3,1,1225
2,2,571,3,1,1571
2,2,572,3,1,1193
2,1,573,3,1,1048
2,2,574,3,1,1178
2,2,575,3,1,1605
2,5,576,3,1,1304
2,3,577,3,1,1403
2,3,578,3,1,1189
2,4,579,3,1,1802
2,2,580,3,1,1190
2,4,581,3,1,1963
2,5,582,3,1,1613
2,5,583,3,1,1524
2,2,584,3,1,1344
2,4,585,3,1,1584
2,5,586,3,1,1236
2,1,587,3,1,1108
2,5,588,3,1,1641
2,1,589,3,1,1175
2,3,590,3,1,2168
2,4,591,3,1,1448
2,2,592,3,1,1350
2,2,593,3,1,1451
2,5,594,3,1,1623
2,4,595,3,1,1352
2,5,596,3,1,1641
2,3,597,3,1,1186
2,3,598,3,1,1873
2,5,599,3,1,2127
2,3,600,4,1,1556
2,4,601,4,1,1694
2,3,602,4,1,1274
2,5,603,4,1,1726
2,2,604,4,1,1767
2,5,605,4,1,1726
2,1,606,4,1,1175
2,2,607,4,1,1517
2,5,608,4,1,1377
2,1,609,4,1,877
2,1,610,4,1,1795
2,5,611,4,1,1662
2,5,612,4,1,1533
2,3,613,4,1,1342
2,5,614,4,1,1617
2,3,615,4,1,1924
2,1,616,4,1,1102
2,5,617,4,1,1345
2,4,618,4,1,1584
2,5,619,4,1,1626
2,5,620,4,1,1186
2,2,621,4,1,1395
2,2,622,4,1,1045
2,1,623,4,1,2202
2,5,624,4,1,1641
2,1,625,4,1,1046
2,4,626,4,1,1615
2,1,627,4,1,1243
2,4,628,4,1,1680
2,4,629,4,1,1272
2,3,630,4,1,1714
2,4,631,4,1,1503
2,3,632,4,1,1181
2,5,633,4,1,1979
2,3,634,4,1,1868
2,4,635,4,1,1475
2,1,636,4,1,1945
2,1,637,4,1,1165
2,4,638,4,1,1494
2,4,639,4,1,1864
2,1,640,4,1,1175
2,1,641,4,1,1194
2,2,642,4,1,1344
2,5,643,4,1,1684
2,2,644,4,1,1318
2,5,645,4,1,1979
2,1,646,4,1,1148
2,4,647,4,1,1315
2,4,648,4,1,1256
2,3,649,4,1,1531
2,1,650,4,1,1090
2,3,651,4,1,1241
2,3,652,4,1,1868
2,2,653,4,1,1527
2,4,654,4,1,1429
2,1,655,4,1,818
2,3,656,4,1,1353
2,4,657,4,1,2523
2,5,658,4,1,1624
2,1,659,4,1,1026
2,3,660,4,1,1189
2,1,661,4,1,1596
2,3,662,4,1,1406
2,5,663,4,1,1945
2,3,664,4,1,1627
2,1,665,4,1,1065
2,3,666,4,1,1764
2,2,667,4,1,1285
2,3,668,4,1,1716
2,3,669,4,1,1457
2,2,670,4,1,1498
2,2,671,4,1,1801
2,5,672,4,1,1285
2,3,673,4,1,1213
2,2,674,4,1,1527
2,1,675,4,1,1104
2,3,676,4,1,1363
2,2,677,4,1,2473
2,3,678,4,1,1353
2,2,679,4,1,1355
2,4,680,4,1,2105
2,5,681,4,1,1607
2,2,682,4,1,1227
2,2,683,4,1,1217
2,2,684,4,1,1431
2,1,685,4,1,875
2,5,686,4,1,1465
2,4,687,4,1,1586
2,2,688,4,1,1287
2,1,689,4,1,1165
2,3,690,4,1,1763
2,1,691,4,1,1100
2,2,692,4,1,1688
2,1,693,4,1,1182
2,2,694,4,1,1127
2,1,695,4,1,1795
2,3,696,4,1,2347
2,4,697,4,1,1437
2,2,698,4,1,2473
2,2,699,4,1,1217
2,5,700,4,1,1377
2,3,701,4,1,1633
2,1,702,4,1,1123
2,1,703,4,1,1068
2,2,704,4,1,1393
2,1,705,4,1,1118
2,4,706,4,1,1586
2,2,707,4,1,1699
2,3,708,4,1,2168
2,5,709,4,1,1978
2,1,710,4,1,1046
2,2,711,4,1,1483
2,2,712,4,1,1121
2,5,713,4,1,1587
2,3,714,4,1,1862
2,4,715,4,1,1457
2,2,716,4,1,1067
2,5,717,4,1,1322
2,2,718,4,1,1079
2,4,719,4,1,2214
2,3,720,4,1,1437
2,3,721,4,1,1457
2,2,722,4,1,1285
2,2,723,4,1,1285
2,5,724,4,1,1613
2,4,725,4,1,2007
2,1,726,4,1,1109
2,2,727,4,1,1334
2,3,728,4,1,2079
2,3,729,4,1,1565
2,3,730,4,1,1363
2,2,731,4,1,1162
2,5,732,4,1,2345
2,5,733,4,1,1307
2,1,734,4,1,1115
2,1,735,4,1,1068
2,3,736,4,1,2267
2,4,737,4,1,1680
2,2,738,4,1,1079
2,1,739,4,1,1124
2,2,740,4,1,1224
2,2,741,4,1,1227
2,4,742,4,1,1850
2,4,743,4,1,2214
2,5,744,4,1,1276
2,2,745,4,1,2201
2,3,746,4,1,1913
2,3,747,4,1,1726
2,5,748,4,0,2096
2,1,749,4,0,1164
2,5,750,4,1,1199
2,5,751,4,1,1402
2,4,752,4,1,1974
2,1,753,4,1,1367
2,5,754,4,1,1307
2,5,755,4,1,1198
2,4,756,4,1,1414
2,4,757,4,1,1680
2,3,758,4,1,1714
2,1,759,4,1,1124
2,1,760,4,1,1102
2,1,761,4,1,1302
2,4,762,4,1,1584
2,1,763,4,1,1297
2,4,764,4,1,1963
2,4,765,4,1,1919
2,2,766,4,1,2201
2,4,767,4,1,1182
2,3,768,4,1,1292
2,5,769,4,1,1384
2,5,770,4,1,1616
2,5,771,4,1,1298
2,4,772,4,1,1746
2,1,773,4,1,1026
2,3,774,4,1,1527
2,1,775,4,1,1085
2,4,776,4,1,1603
2,5,777,4,1,1434
2,4,778,4,1,1635
2,1,779,4,1,1085
2,5,780,4,1,2065
2,4,781,4,1,1414
2,4,782,4,1,1746
2,4,783,4,1,1863
2,2,784,4,1,1283
2,2,785,4,1,1086
2,1,786,4,1,1115
2,5,787,4,1,1526
2,1,788,4,1,1165
2,2,789,4,1,1079
2,3,790,4,1,1292
2,4,791,4,1,1447
2,4,792,4,1,1620
2,4,793,4,1,1315
2,1,794,4,1,1123
2,4,795,4,1,1185
2,1,796,4,1,1085
2,4,797,4,1,1286
2,5,798,4,1,1322
2,4,799,4,1,1929
2,5,800,5,1,1902
2,5,801,5,1,1615
2,4,802,5,1,1929
2,2,803,5,1,1227
2,5,804,5,1,2607
2,5,805,5,1,1163
2,1,806,5,1,1384
2,3,807,5,1,2345
2,4,808,5,1,1683
2,1,809,5,1,1247
2,1,810,5,1,1139
2,4,811,5,1,1587
2,5,812,5,1,1326
2,2,813,5,1,2008
2,5,814,5,1,1125
2,1,815,5,1,1225
2,2,816,5,1,1162
2,3,817,5,1,1635
2,5,818,5,1,1276
2,1,819,5,1,1214
2,5,820,5,1,2127
2,4,821,5,1,1414
2,4,822,5,1,1329
2,5,823,5,1,1615
2,4,824,5,1,2007
2,4,825,5,1,1237
2,5,826,5,1,2025
2,1,827,5,1,955
2,3,828,5,1,1523
2,4,829,5,0,1336
2,5,830,5,1,1146
2,3,831,5,1,2042
2,5,832,5,1,1465
2,2,833,5,1,1327
2,1,834,5,1,1197
2,1,835,5,1,1182
2,3,836,5,1,1687
2,2,837,5,1,2008
2,2,838,5,1,1393
2,3,839,5,1,1873
2,4,840,5,1,1863
2,2,841,5,1,2008
2,5,842,5,1,1902
2,5,843,5,1,2363
2,4,844,5,1,1437
2,5,845,5,1,1607
2,1,846,5,1,1175
2,1,847,5,1,1447
2,2,848,5,1,1321
2,1,849,5,1,1048
2,1,850,5,1,1527
2,2,851,5,1,1355
2,4,852,5,1,1182
2,4,853,5,1,1481
2,4,854,5,1,1873
2,3,855,5,1,1531
2,2,856,5,1,1408
2,4,857,5,1,1546
2,2,858,5,1,1285
2,4,859,5,1,1694
2,2,860,5,1,2096
2,5,861,5,1,1163
2,1,862,5,1,1225
2,4,863,5,1,1566
2,4,864,5,1,1272
2,5,865,5,1,1362
2,3,866,5,1,1764
2,4,867,5,1,1448
2,3,868,5,1,1403
2,2,869,5,1,1152
2,4,870,5,1,1182
2,5,871,5,1,1448
2,3,872,5,1,1877
2,1,873,5,1,1043
2,4,874,5,1,1360
2,2,875,5,1,1266
2,2,876,5,1,1326
2,2,877,5,1,1498
2,2,878,5,1,1547
2,1,879,5,1,1206
2,4,880,5,1,1635
2,2,881,5,1,1287
2,5,882,5,1,1473
2,3,883,5,1,1556
2,4,884,5,1,1635
2,1,885,5,1,1367
2,4,886,5,1,1963
2,2,887,5,1,1086
2,5,888,5,1,1428
2,1,889,5,1,1527
2,1,890,5,1,1175
2,1,891,5,1,875
2,1,892,5,1,1068
2,3,893,5,1,1913
2,3,894,5,1,1862
2,2,895,5,1,1359
2,2,896,5,1,1383
2,1,897,5,1,1243
2,2,898,5,1,1801
2,2,899,5,1,1688
2,2,900,5,1,1285
2,4,901,5,1,1620
2,2,902,5,1,2049
2,1,903,5,1,1133
2,4,904,5,1,1167
2,2,905,5,1,1547
2,4,906,5,1,2442
2,1,907,5,1,1104
2,1,908,5,1,1596
2,2,909,5,1,1318
2,5,910,5,1,2363
2,2,911,5,1,1326
2,5,912,5,1,1156
2,5,913,5,1,1326
2,2,914,5,1,1699
2,1,915,5,1,1115
2,1,916,5,1,1163
2,3,917,5,1,1437
2,4,918,5,1,2523
2,2,919,5,1,1398
2,4,920,5,1,1315
2,4,921,5,1,1694
2,1,922,5,1,1175
2,4,923,5,1,1506
2,2,924,5,1,1645
2,3,925,5,1,1353
2,1,926,5,1,1068
2,3,927,5,1,1342
2,5,928,5,1,1428
2,5,929,5,1,1199
2,4,930,5,1,1352
2,4,931,5,1,1615
2,4,932,5,1,2523
2,3,933,5,1,1566
2,4,934,5,1,1335
2,1,935,5,1,1065
2,1,936,5,1,2202
2,2,937,5,1,1384
2,5,938,5,1,1362
2,5,939,5,1,1473
2,3,940,5,1,1523
2,5,941,5,1,1587
2,5,942,5,1,1979
2,4,943,5,1,2164
2,3,944,5,1,1308
2,2,945,5,1,1359
2,2,946,5,1,1326
2,1,947,5,1,1139
2,3,948,5,1,1565
2,3,949,5,1,1531
2,5,950,5,1,1236
2,5,951,5,1,1663
2,1,952,5,1,1194
2,5,953,5,1,1726
2,4,954,5,1,1475
2,2,955,5,1,1285
2,2,956,5,1,1512
2,3,957,5,1,2042
2,2,958,5,1,2473
2,4,959,5,1,1638
2,4,960,5,1,1286
2,2,961,5,1,1086
2,4,962,5,1,1447
2,1,963,5,1,1106
2,2,964,5,1,1127
2,2,965,5,1,1067
2,3,966,5,1,2456
2,1,967,5,1,875
2,3,968,5,1,1708
2,3,969,5,1,1891
2,3,970,5,1,1523
2,2,971,5,1,1547
2,2,972,5,1,1393
2,3,973,5,1,1437
2,4,974,5,1,1444
2,4,975,5,1,1448
2,3,976,5,1,1514
2,4,977,5,1,1603
2,5,978,5,1,1617
2,2,979,5,1,1180
2,1,980,5,1,1345
2,4,981,5,1,1735
2,3,982,5,1,2227
2,3,983,5,1,2227
2,1,984,5,1,1085
2,1,985,5,1,1123
2,1,986,5,1,1384
2,1,987,5,1,1175
2,3,988,5,1,2188
2,4,989,5,1,1864
2,2,990,5,1,1801
2,3,991,5,1,1891
2,5,992,5,1,1377
2,5,993,5,1,1682
2,2,994,5,1,1086
2,4,995,5,1,1694
2,2,996,5,1,2185
2,3,997,5,1,2270
2,4,998,5,1,1448
2,5,999,5,1,1422
2,5,1000,6,1,1526
2,4,1001,6,1,1123
2,3,1002,6,1,1181
2,3,1003,6,1,1514
2,4,1004,6,1,1603
2,5,1005,6,1,2096
2,4,1006,6,1,1546
2,2,1007,6,1,1645
2,1,1008,6,1,1178
2,2,1009,6,1,1350
2,5,1010,6,1,1684
2,1,1011,6,1,1156
2,4,1012,6,1,1919
2,4,1013,6,1,1695
2,3,1014,6,1,1495
2,1,1015,6,1,1225
2,2,1016,6,1,1266
2,2,1017,6,1,1217
2,3,1018,6,1,1675
2,2,1019,6,1,1178
2,2,1020,6,1,1318
2,3,1021,6,1,1523
2,3,1022,6,1,1308
2,3,1023,6,1,1913
2,5,1024,6,1,1127
2,3,1025,6,1,1268
2,5,1026,6,1,1186
2,3,1027,6,1,1268
2,1,1028,6,1,1014
2,3,1029,6,1,1241
2,3,1030,6,1,1633
2,3,1031,6,1,2227
2,1,1032,6,1,1795
2,3,1033,6,1,2456
2,3,1034,6,1,1310
2,4,1035,6,1,2105
2,1,1036,6,1,1194
2,3,1037,6,1,1764
2,4,1038,6,1,1346
2,1,1039,6,1,1206
2,3,1040,6,1,1725
2,4,1041,6,1,1335
2,5,1042,6,1,1603
2,4,1043,6,1,1635
2,3,1044,6,1,2345
2,3,1045,6,1,1725
2,1,1046,6,1,1104
2,5,1047,6,1,1198
2,5,1048,6,1,2065
2,4,1049,6,1,1237
2,1,1050,6,1,1118
2,2,1051,6,1,1767
2,5,1052,6,1,2604
2,5,1053,6,1,2363
2,3,1054,6,1,1213
2,2,1055,6,1,1645
2,1,1056,6,1,1085
2,3,1057,6,1,1725
2,5,1058,6,1,1387
2,4,1059,6,1,1574
2,2,1060,6,1,2052
2,2,1061,6,1,1527
2,5,1062,6,1,1156
2,4,1063,6,1,1574
2,4,1064,6,1,1414
2,5,1065,6,1,1345
2,2,1066,6,1,1645
2,2,1067,6,1,2052
2,2,1068,6,1,1321
2,2,1069,6,1,1483
2,3,1070,6,1,1290
2,1,1071,6,1,1104
2,2,1072,6,1,1439
2,2,1073,6,1,1184
2,5,1074,6,1,1162
2,3,1075,6,1,1708
2,5,1076,6,1,1313
2,2,1077,6,1,1350
2,4,1078,6,1,1503
2,5,1079,6,1,1285
2,4,1080,6,1,1546
2,5,1081,6,1,2025
2,5,1082,6,1,1524
2,2,1083,6,1,2096
2,4,1084,6,1,1929
2,5,1085,6,1,1387
2,3,1086,6,1,1627
2,1,1087,6,1,1048
2,2,1088,6,1,1355
2,5,1089,6,1,1829
2,4,1090,6,1,1680
2,2,1091,6,1,2185
2,5,1092,6,1,1682
2,3,1093,6,1,2267
2,3,1094,6,1,1514
2,2,1095,6,1,1326
2,3,1096,6,1,1714
2,5,1097,6,1,1162
2,1,1098,6,1,1194
2,5,1099,6,1,1199
2,2,1100,6,1,2264
2,3,1101,6,1,1877
2,1,1102,6,1,1596
2,4,1103,6,1,1182
2,1,1104,6,1,1085
2,1,1105,6,1,1367
2,1,1106,6,1,1085
2,5,1107,6,1,1402
2,5,1108,6,1,1198
2,5,1109,6,1,1473
2,3,1110,6,1,2188
2,1,1111,6,1,1194
2,5,1112,6,1,1345
2,4,1113,6,1,1481
2,2,1114,6,1,1127
2,4,1115,6,1,1481
2,3,1116,6,1,1525
2,4,1117,6,1,1444
2,4,1118,6,1,1306
2,1,1119,6,1,1043
2,2,1120,6,1,1398
2,1,1121,6,1,1046
2,3,1122,6,1,1527
2,5,1123,6,1,1465
2,2,1124,6,1,1344
2,2,1125,6,1,2096
2,5,1126,6,1,1603
2,1,1127,6,1,877
2,3,1128,6,1,1687
2,1,1129,6,1,1118
2,3,1130,6,1,1525
2,1,1131,6,1,1100
2,4,1132,6,1,1256
2,1,1133,6,1,1133
2,1,1134,6,1,955
2,2,1135,6,1,1152
2,3,1136,6,1,1308
2,3,1137,6,1,1708
2,2,1138,6,1,2049
2,5,1139,6,1,1465
2,2,1140,6,1,1749
2,5,1141,6,1,1806
2,2,1142,6,1,1340
2,1,1143,6,1,1092
2,4,1144,6,1,1984
2,3,1145,6,1,1566
2,1,1146,6,1,1164
2,4,1147,6,1,1437
2,3,1148,6,1,1241
2,5,1149,6,1,1107
2,1,1150,6,1,1065
2,5,1151,6,1,1624
2,2,1152,6,1,1121
2,4,1153,6,1,1529
2,1,1154,6,1,1225
2,1,1155,6,1,1102
2,2,1156,6,1,1829
2,1,1157,6,1,1194
2,3,1158,6,1,1764
2,2,1159,6,1,1393
2,1,1160,6,1,1118
2,2,1161,6,1,1688
2,5,1162,6,1,1107
2,5,1163,6,1,1313
2,2,1164,6,1,1283
2,4,1165,6,1,1416
2,2,1166,6,1,1749
2,5,1167,6,1,2096
2,2,1168,6,1,1234
2,3,1169,6,1,2042
2,3,1170,6,1,1402
2,4,1171,6,1,1429
2,4,1172,6,1,1239
2,3,1173,6,1,1292
2,5,1174,6,1,1454
2,1,1175,6,1,1345
2,5,1176,6,1,2025
2,3,1177,6,1,1402
2,2,1178,6,1,1645
2,1,1179,6,1,877
2,3,1180,6,1,1806
2,5,1181,6,1,1298
2,5,1182,6,1,1176
2,2,1183,6,1,2201
2,1,1184,6,1,1123
2,3,1185,6,1,1675
2,1,1186,6,1,1106
2,3,1187,6,1,1213
2,5,1188,6,1,1465
2,3,1189,6,1,1862
2,1,1190,6,1,1103
2,1,1191,6,1,1077
2,2,1192,6,1,1395
2,1,1193,6,1,1016
2,4,1194,6,1,1963
2,2,1195,6,1,1605
2,1,1196,6,1,1085
2,3,1197,6,1,1873
2,2,1198,6,1,1465
2,2,1199,6,1,1527
2,1,1200,7,1,1527
2,1,1201,7,1,1077
2,2,1202,7,1,1465
2,4,1203,7,1,1256
2,2,1204,7,1,1162
2,4,1205,7,1,1272
2,2,1206,7,1,1190
2,1,1207,7,1,1100
2,5,1208,7,1,1163
2,3,1209,7,1,1506
2,4,1210,7,1,1985
2,3,1211,7,1,1274
2,3,1212,7,1,1391
2,5,1213,7,1,2604
2,5,1214,7,1,1307
2,3,1215,7,1,1353
2,5,1216,7,1,1345
2,2,1217,7,1,1571
2,5,1218,7,1,1385
2,2,1219,7,1,2052
2,5,1220,7,1,1613
2,5,1221,7,1,1626
2,3,1222,7,1,2163
2,3,1223,7,1,1892
2,4,1224,7,1,1448
2,1,1225,7,1,1104
2,1,1226,7,1,1123
2,3,1227,7,1,1378
2,4,1228,7,1,1635
2,4,1229,7,1,1985
2,1,1230,7,1,1175
2,4,1231,7,1,1306
2,5,1232,7,1,1162
2,5,1233,7,1,1722
2,5,1234,7,1,1198
2,2,1235,7,1,1152
2,2,1236,7,1,1325
2,3,1237,7,1,1556
2,3,1238,7,1,2345
2,5,1239,7,1,2127
2,4,1240,7,1,1329
2,1,1241,7,1,1374
2,3,1242,7,1,1675
2,3,1243,7,1,1310
2,5,1244,7,1,1978
2,1,1245,7,1,1133
2,5,1246,7,1,1726
2,4,1247,7,1,1625
2,3,1248,7,1,1548
2,1,1249,7,1,1133
2,3,1250,7,1,1268
2,4,1251,7,1,1603
2,5,1252,7,1,1146
2,4,1253,7,1,1683
2,4,1254,7,1,1481
2,1,1255,7,1,1090
2,4,1256,7,1,1529
2,2,1257,7,1,1162
2,2,1258,7,1,2806
2,2,1259,7,1,1190
2,2,1260,7,1,1451
2,2,1261,7,1,1178
2,3,1262,7,1,1406
2,3,1263,7,1,1548
2,3,1264,7,1,1716
2,4,1265,7,1,1919
2,5,1266,7,1,1524
2,2,1267,7,1,1334
2,2,1268,7,1,1498
2,5,1269,7,1,2103
2,1,1270,7,1,1247
2,4,1271,7,1,1566
2,1,1272,7,1,1146
2,1,1273,7,1,1108
2,3,1274,7,1,1764
2,3,1275,7,1,1347
2,1,1276,7,1,1175
2,1,1277,7,1,1046
2,2,1278,7,1,1184
2,5,1279,7,1,1663
2,5,1280,7,1,1978
2,3,1281,7,1,2726
2,3,1282,7,1,1687
2,1,1283,7,1,1043
2,3,1284,7,1,2347
2,2,1285,7,1,1285
2,4,1286,7,1,1683
2,1,1287,7,1,1098
2,3,1288,7,1,1635
2,1,1289,7,1,1086
2,1,1290,7,1,1086
2,1,1291,7,1,1581
2,3,1292,7,1,1800
2,3,1293,7,1,2444
2,3,1294,7,1,1181
2,1,1295,7,1,1057
2,5,1296,7,1,1163
2,1,1297,7,1,1105
2,4,1298,7,1,963
2,5,1299,7,1,2607
2,4,1300,7,1,1638
2,1,1301,7,1,1182
2,1,1302,7,1,1374
2,2,1303,7,1,1498
2,1,1304,7,1,1133
2,1,1305,7,1,1057
2,4,1306,7,1,1985
2,5,1307,7,1,1176
2,2,1308,7,1,1605
2,3,1309,7,1,1318
2,1,1310,7,1,1345
2,4,1311,7,1,2164
2,3,1312,7,1,2192
2,4,1313,7,1,2164
2,2,1314,7,1,1217
2,3,1315,7,1,1353
2,5,1316,7,1,1722
2,4,1317,7,1,1546
2,5,1318,7,1,1280
2,1,1319,7,1,1106
2,5,1320,7,1,2096
2,5,1321,7,1,1615
2,4,1322,7,1,1494
2,4,1323,7,1,1746
2,4,1324,7,1,1360
2,2,1325,7,1,1398
2,3,1326,7,1,1925
2,1,1327,7,1,1247
2,2,1328,7,1,1121
2,2,1329,7,1,1178
2,4,1330,7,1,1603
2,3,1331,7,1,1764
2,4,1332,7,1,1864
2,4,1333,7,1,1667
2,2,1334,7,1,2185
2,3,1335,7,1,1675
2,1,1336,7,1,1384
2,2,1337,7,1,2052
2,5,1338,7,1,1257
2,4,1339,7,1,1185
2,3,1340,7,1,1877
2,2,1341,7,1,2185
2,3,1342,7,1,1892
2,2,1343,7,1,1699
2,4,1344,7,1,1929
2,2,1345,7,1,1355
2,2,1346,7,1,1178
2,2,1347,7,1,1453
2,1,1348,7,1,1048
2,2,1349,7,1,1287
2,3,1350,7,1,1913
2,4,1351,7,1,1123
2,4,1352,7,1,1667
2,2,1353,7,1,1067
2,4,1354,7,1,1344
2,1,1355,7,1,1243
2,3,1356,7,1,1342
2,1,1357,7,1,1086
2,4,1358,7,1,2021
2,1,1359,7,1,1302
2,5,1360,7,1,1139
2,5,1361,7,1,1285
2,2,1362,7,1,1395
2,3,1363,7,1,2168
2,5,1364,7,1,1280
2,5,1365,7,1,1428
2,2,1366,7,1,1512
2,5,1367,7,1,1280
2,4,1368,7,1,1256
2,5,1369,7,1,2065
2,5,1370,7,1,1448
2,1,1371,7,1,1795
2,1,1372,7,1,1092
2,4,1373,7,1,1985
2,1,1374,7,1,1111
2,3,1375,7,1,1245
2,3,1376,7,1,1556
2,5,1377,7,1,1387
2,2,1378,7,1,1227
2,4,1379,7,1,1863
2,4,1380,7,1,1680
2,5,1381,7,1,1384
2,3,1382,7,1,1891
2,5,1383,7,1,1139
2,2,1384,7,1,2201
2,4,1385,7,1,1735
2,3,1386,7,1,1186
2,2,1387,7,1,1512
2,4,1388,7,1,1167
2,2,1389,7,1,1699
2,3,1390,7,1,1913
2,2,1391,7,1,1517
2,4,1392,7,1,2007
2,4,1393,7,1,1974
2,1,1394,7,1,1115
2,5,1395,7,1,1457
2,1,1396,7,1,1148
2,5,1397,7,1,1607
2,1,1398,7,1,1182
2,4,1399,7,1,1503
2,2,1400,8,1,1439
2,2,1401,8,1,1321
2,4,1402,8,1,1974
2,1,1403,8,1,1164
2,3,1404,8,1,1245
2,3,1405,8,1,1181
2,3,1406,8,1,2267
2,1,1407,8,1,1085
2,3,1408,8,1,1292
2,1,1409,8,1,1123
2,3,1410,8,1,2267
2,3,1411,8,1,2079
2,5,1412,8,1,1457
2,4,1413,8,1,1506
2,3,1414,8,1,2163
2,3,1415,8,1,1506
2,4,1416,8,1,1506
2,4,1417,8,1,1863
2,2,1418,8,1,1451
2,1,1419,8,1,1098
2,2,1420,8,1,1067
2,1,1421,8,1,1102
2,4,1422,8,1,1984
2,2,1423,8,1,1327
2,4,1424,8,1,1587
2,3,1425,8,1,1391
2,1,1426,8,1,1133
2,2,1427,8,1,1393
2,3,1428,8,1,1708
2,5,1429,8,1,1257
2,1,1430,8,1,1057
2,5,1431,8,1,2103
2,2,1432,8,1,1512
2,2,1433,8,1,1764
2,1,1434,8,1,818
2,2,1435,8,1,1045
2,2,1436,8,1,1340
2,5,1437,8,1,1978
2,4,1438,8,1,1315
2,4,1439,8,1,2639
2,2,1440,8,1,1162
2,2,1441,8,1,1184
2,3,1442,8,1,1763
2,4,1443,8,1,1984
2,2,1444,8,1,1340
2,1,1445,8,1,1147
2,4,1446,8,1,1984
2,4,1447,8,1,1272
2,2,1448,8,1,1338
2,5,1449,8,1,1428
2,4,1450,8,1,2081
2,5,1451,8,1,1156
2,4,1452,8,1,1306
2,5,1453,8,1,1313
2,4,1454,8,1,1735
2,1,1455,8,1,818
2,1,1456,8,1,1164
2,1,1457,8,1,1108
2,3,1458,8,1,1633
2,4,1459,8,1,1414
2,2,1460,8,1,1482
2,4,1461,8,1,1984
2,5,1462,8,1,2345
2,1,1463,8,1,1057
2,2,1464,8,1,1344
2,2,1465,8,1,1431
2,3,1466,8,1,2423
2,5,1467,8,1,1603
2,4,1468,8,1,1286
2,5,1469,8,1,1533
2,5,1470,8,1,1413
2,5,1471,8,1,1326
2,4,1472,8,1,1239
2,5,1473,8,1,1863
2,5,1474,8,1,1162
2,5,1475,8,1,1304
2,1,1476,8,1,1016
2,3,1477,8,1,1635
2,2,1478,8,1,1829
2,3,1479,8,1,1525
2,2,1480,8,1,1492
2,3,1481,8,1,2726
2,5,1482,8,1,1945
2,3,1483,8,1,1318
2,1,1484,8,1,1182
2,2,1485,8,1,1287
2,5,1486,8,1,2345
2,4,1487,8,1,1352
2,1,1488,8,1,1163
2,5,1489,8,1,2103
2,1,1490,8,1,1085
2,5,1491,8,1,1663
2,4,1492,8,1,1640
2,3,1493,8,1,2267
2,3,1494,8,1,2270
2,1,1495,8,1,1297
2,5,1496,8,1,1176
2,3,1497,8,1,1464
2,1,1498,8,1,1085
2,2,1499,8,1,1193
2,3,1500,8,1,1987
2,1,1501,8,1,2202
2,4,1502,8,1,1429
2,5,1503,8,1,1402
2,2,1504,8,1,1266
2,4,1505,8,1,1683
2,3,1506,8,1,1892
2,1,1507,8,1,1026
2,2,1508,8,1,1717
2,3,1509,8,1,1891
2,3,1510,8,1,2726
2,2,1511,8,1,1193
2,1,1512,8,1,1243
2,4,1513,8,1,1457
2,5,1514,8,1,1626
2,4,1515,8,1,1457
2,2,1516,8,1,1350
2,2,1517,8,1,2473
2,2,1518,8,1,1184
2,4,1519,8,1,1963
2,5,1520,8,1,1326
2,3,1521,8,1,2347
2,4,1522,8,1,2214
2,1,1523,8,1,1076
2,5,1524,8,1,1259
2,2,1525,8,1,1190
2,2,1526,8,1,1408
2,5,1527,8,1,1840
2,4,1528,8,1,1984
2,1,1529,8,1,1148
2,5,1530,8,1,2065
2,1,1531,8,1,1105
2,2,1532,8,1,1327
2,2,1533,8,1,1162
2,5,1534,8,1,1387
2,2,1535,8,1,1338
2,3,1536,8,1,1924
2,5,1537,8,1,1806
2,2,1538,8,1,1180
2,2,1539,8,1,2096
2,4,1540,8,1,1587
2,5,1541,8,1,1603
2,4,1542,8,1,1444
2,4,1543,8,1,1746
2,2,1544,8,1,1746
2,2,1545,8,1,1127
2,5,1546,8,1,1362
2,2,1547,8,1,1184
2,1,1548,8,1,1581
2,2,1549,8,1,1283
2,4,1550,8,1,1494
2,3,1551,8,1,1726
2,4,1552,8,1,1346
2,4,1553,8,1,1587
2,5,1554,8,1,1298
2,3,1555,8,1,1402
2,4,1556,8,1,1974
2,4,1557,8,1,1360
2,5,1558,8,1,1473
2,3,1559,8,1,1927
2,1,1560,8,1,1104
2,2,1561,8,1,1408
2,5,1562,8,1,1384
2,4,1563,8,0,NA
2,3,1564,8,1,1716
2,3,1565,8,1,1525
2,3,1566,8,1,1406
2,3,1567,8,1,1726
2,5,1568,8,1,1176
2,4,1569,8,1,1204
2,2,1570,8,1,1764
2,5,1571,8,1,1840
2,2,1572,8,1,1492
2,2,1573,8,1,1350
2,4,1574,8,1,1919
2,5,1575,8,1,1806
2,5,1576,8,1,1186
2,3,1577,8,1,1403
2,1,1578,8,1,1345
2,1,1579,8,1,1139
2,3,1580,8,1,1627
2,4,1581,8,1,1123
2,2,1582,8,1,1764
2,4,1583,8,1,2214
2,2,1584,8,1,1086
2,2,1585,8,1,1688
2,5,1586,8,1,1434
2,2,1587,8,1,1162
2,4,1588,8,1,963
2,5,1589,8,1,1616
2,5,1590,8,1,1863
2,5,1591,8,1,1533
2,1,1592,8,1,1147
2,4,1593,8,1,1335
2,3,1594,8,1,1403
2,4,1595,8,1,1315
2,2,1596,8,1,1498
2,3,1597,8,1,1987
2,3,1598,8,1,1687
2,2,1599,8,1,1359
2,5,1600,9,1,2363
2,4,1601,9,1,1447
2,4,1602,9,1,1850
2,5,1603,9,1,1413
2,3,1604,9,1,1635
2,1,1605,9,1,1065
2,4,1606,9,1,1360
2,3,1607,9,1,1892
2,3,1608,9,1,1800
2,1,1609,9,1,1133
2,4,1610,9,1,1503
2,2,1611,9,1,1492
2,4,1612,9,1,1735
2,3,1613,9,1,1924
2,2,1614,9,1,1453
2,2,1615,9,1,1326
2,4,1616,9,1,1336
2,4,1617,9,1,1306
2,2,1618,9,1,1234
2,2,1619,9,1,1338
2,4,1620,9,1,2544
2,5,1621,9,1,1298
2,4,1622,9,1,1984
2,3,1623,9,1,1924
2,3,1624,9,1,1342
2,5,1625,9,1,1127
2,4,1626,9,1,1336
2,5,1627,9,1,1198
2,2,1628,9,1,1162
2,3,1629,9,1,1548
2,4,1630,9,1,1638
2,5,1631,9,1,1840
2,3,1632,9,1,2192
2,5,1633,9,1,1662
2,5,1634,9,1,1624
2,5,1635,9,1,1385
2,2,1636,9,1,1184
2,3,1637,9,1,1868
2,2,1638,9,1,2264
2,1,1639,9,1,877
2,5,1640,9,1,1384
2,3,1641,9,1,1189
2,5,1642,9,1,1385
2,5,1643,9,1,1533
2,4,1644,9,1,2081
2,1,1645,9,1,1076
2,4,1646,9,1,1746
2,1,1647,9,1,1163
2,4,1648,9,1,1414
2,5,1649,9,1,1280
2,5,1650,9,1,1526
2,4,1651,9,1,1416
2,1,1652,9,1,1178
2,5,1653,9,1,1684
2,3,1654,9,1,1627
2,5,1655,9,1,1125
2,5,1656,9,1,1454
2,3,1657,9,1,1927
2,4,1658,9,1,2639
2,4,1659,9,1,2021
2,2,1660,9,1,1398
2,4,1661,9,1,1529
2,4,1662,9,1,2442
2,4,1663,9,1,1929
2,1,1664,9,1,875
2,4,1665,9,1,1239
2,4,1666,9,1,1167
2,3,1667,9,1,1565
2,3,1668,9,1,2163
2,1,1669,9,1,1148
2,3,1670,9,1,2192
2,1,1671,9,1,1139
2,1,1672,9,1,1014
2,4,1673,9,1,1546
2,2,1674,9,1,1217
2,2,1675,9,1,1285
2,2,1676,9,1,1431
2,5,1677,9,1,1863
2,1,1678,9,1,1014
2,1,1679,9,1,1077
2,4,1680,9,1,1802
2,5,1681,9,1,2345
2,2,1682,9,1,1344
2,5,1683,9,1,1276
2,4,1684,9,0,NA
2,3,1685,9,1,1378
2,1,1686,9,1,1182
2,1,1687,9,1,1090
2,4,1688,9,1,1667
2,5,1689,9,1,1539
2,5,1690,9,1,1125
2,3,1691,9,1,1391
2,4,1692,9,1,1586
2,1,1693,9,1,1247
2,3,1694,9,1,2423
2,5,1695,9,1,1422
2,4,1696,9,1,1494
2,5,1697,9,1,1307
2,5,1698,9,1,1322
2,2,1699,9,1,1746
2,1,1700,9,1,1156
2,4,1701,9,1,2081
2,5,1702,9,1,1377
2,5,1703,9,1,1945
2,2,1704,9,1,1162
2,2,1705,9,1,1383
2,3,1706,9,1,2188
2,4,1707,9,1,1344
2,4,1708,9,1,1237
2,5,1709,9,1,1613
2,3,1710,9,1,2188
2,2,1711,9,1,1162
2,1,1712,9,1,1104
2,3,1713,9,1,1565
2,5,1714,9,1,1107
2,3,1715,9,1,1527
2,4,1716,9,1,1625
2,3,1717,9,1,2192
2,5,1718,9,1,1623
2,1,1719,9,1,1086
2,1,1720,9,1,955
2,4,1721,9,1,1667
2,4,1722,9,1,1123
2,3,1723,9,1,1186
2,5,1724,9,1,1663
2,3,1725,9,1,2270
2,4,1726,9,1,1506
2,4,1727,9,1,1256
2,2,1728,9,1,1321
2,4,1729,9,1,1695
2,1,1730,9,1,1206
2,4,1731,9,1,1494
2,3,1732,9,1,1495
2,2,1733,9,1,1749
2,2,1734,9,1,1227
2,2,1735,9,1,2049
2,3,1736,9,1,1633
2,4,1737,9,1,1529
2,4,1738,9,1,1566
2,1,1739,9,1,1197
2,5,1740,9,1,1322
2,5,1741,9,1,1384
2,5,1742,9,1,1127
2,2,1743,9,1,1749
2,4,1744,9,1,1329
2,2,1745,9,1,2008
2,5,1746,9,1,1662
2,3,1747,9,1,1548
2,1,1748,9,1,1164
2,3,1749,9,1,1186
2,4,1750,9,1,1546
2,5,1751,9,1,1304
2,4,1752,9,1,1984
2,4,1753,9,1,1437
2,2,1754,9,1,1340
2,5,1755,9,1,2127
2,1,1756,9,1,1105
2,4,1757,9,1,1625
2,3,1758,9,1,1800
2,2,1759,9,1,1162
2,3,1760,9,1,1548
2,2,1761,9,1,1325
2,1,1762,9,1,1367
2,5,1763,9,1,1107
2,5,1764,9,1,1448
2,2,1765,9,1,1383
2,2,1766,9,1,1746
2,1,1767,9,1,1124
2,5,1768,9,1,1276
2,2,1769,9,1,1465
2,3,1770,9,1,2079
2,5,1771,9,1,1257
2,1,1772,9,1,963
2,1,1773,9,1,1048
2,2,1774,9,1,1285
2,4,1775,9,1,1352
2,4,1776,9,1,2081
2,1,1777,9,1,1104
2,3,1778,9,1,1716
2,3,1779,9,1,2456
2,3,1780,9,1,1347
2,2,1781,9,1,2008
2,3,1782,9,1,1347
2,5,1783,9,1,1722
2,1,1784,9,1,1148
2,1,1785,9,1,1146
2,4,1786,9,1,1603
2,5,1787,9,1,1156
2,3,1788,9,1,1987
2,4,1789,9,1,1346
2,4,1790,9,1,2007
2,3,1791,9,1,1186
2,3,1792,9,1,1891
2,1,1793,9,1,1175
2,1,1794,9,1,1178
2,2,1795,9,1,1843
2,1,1796,9,1,1302
2,1,1797,9,1,1146
2,1,1798,9,1,1384
2,1,1799,9,1,1175
2,1,1800,10,1,1581
2,1,1801,10,1,1126
2,2,1802,10,1,1334
2,1,1803,10,1,1124
2,4,1804,10,1,1683
2,5,1805,10,1,2604
2,3,1806,10,1,1457
2,4,1807,10,1,1802
2,5,1808,10,1,1186
2,4,1809,10,1,1603
2,2,1810,10,1,1717
2,3,1811,10,1,2270
2,3,1812,10,1,1764
2,1,1813,10,1,1123
2,5,1814,10,1,1125
2,3,1815,10,1,1873
2,2,1816,10,1,1431
2,1,1817,10,1,1163
2,3,1818,10,1,1318
2,4,1819,10,1,1237
2,4,1820,10,1,2081
2,2,1821,10,1,1340
2,1,1822,10,1,1014
2,3,1823,10,1,1514
2,2,1824,10,1,1045
2,4,1825,10,1,1695
2,5,1826,10,1,1626
2,3,1827,10,1,2079
2,5,1828,10,1,1384
2,2,1829,10,1,1453
2,2,1830,10,1,1717
2,2,1831,10,1,1767
2,2,1832,10,1,1152
2,4,1833,10,1,1625
2,4,1834,10,1,1346
2,4,1835,10,1,1447
2,5,1836,10,1,1617
2,3,1837,10,1,1495
2,5,1838,10,1,1722
2,5,1839,10,1,1448
2,4,1840,10,1,1414
2,1,1841,10,1,1197
2,1,1842,10,1,1098
2,1,1843,10,1,1104
2,2,1844,10,1,1439
2,5,1845,10,1,1682
2,2,1846,10,1,1571
2,1,1847,10,1,1156
2,4,1848,10,1,1429
2,4,1849,10,1,1123
2,3,1850,10,1,1274
2,1,1851,10,1,1147
2,5,1852,10,1,1156
2,1,1853,10,1,1447
2,5,1854,10,1,2065
2,3,1855,10,1,1292
2,2,1856,10,1,1227
2,4,1857,10,1,1457
2,3,1858,10,1,1245
2,5,1859,10,1,1127
2,3,1860,10,1,1274
2,1,1861,10,1,1200
2,2,1862,10,1,1384
2,5,1863,10,1,1539
2,3,1864,10,1,1157
2,2,1865,10,1,1234
2,2,1866,10,1,1184
2,3,1867,10,1,1868
2,5,1868,10,1,1454
2,1,1869,10,1,1104
2,4,1870,10,1,1336
2,2,1871,10,1,1571
2,1,1872,10,1,1133
2,2,1873,10,1,1162
2,1,1874,10,1,1175
2,1,1875,10,1,1123
2,3,1876,10,1,1806
2,3,1877,10,1,1464
2,4,1878,10,1,2214
2,5,1879,10,1,1413
2,5,1880,10,1,1607
2,4,1881,10,1,1416
2,4,1882,10,1,2544
2,4,1883,10,1,1587
2,5,1884,10,1,1902
2,4,1885,10,1,1603
2,2,1886,10,1,1767
2,3,1887,10,1,2456
2,1,1888,10,1,1945
2,2,1889,10,1,1395
2,3,1890,10,1,1764
2,1,1891,10,1,1077
2,1,1892,10,1,1247
2,1,1893,10,1,1109
2,4,1894,10,1,1529
2,2,1895,10,1,1334
2,1,1896,10,1,877
2,1,1897,10,1,1175
2,3,1898,10,1,1531
2,1,1899,10,1,1026
2,3,1900,10,1,1157
2,4,1901,10,1,2544
2,1,1902,10,1,1206
2,3,1903,10,1,1714
2,1,1904,10,1,1447
2,4,1905,10,1,2007
2,1,1906,10,1,1345
2,5,1907,10,1,2604
2,5,1908,10,1,1454
2,3,1909,10,1,2270
2,2,1910,10,1,1547
2,1,1911,10,1,1945
2,3,1912,10,1,1566
2,3,1913,10,1,1363
2,5,1914,10,1,1326
2,1,1915,10,1,1085
2,2,1916,10,1,1234
2,2,1917,10,1,1453
2,2,1918,10,1,1334
2,3,1919,10,1,1290
2,2,1920,10,1,1224
2,5,1921,10,1,1387
2,2,1922,10,1,1829
2,3,1923,10,1,1310
2,2,1924,10,1,1079
2,5,1925,10,1,1402
2,2,1926,10,1,2806
2,4,1927,10,1,2639
2,4,1928,10,1,2021
2,5,1929,10,1,1259
2,5,1930,10,1,1259
2,2,1931,10,1,1045
2,5,1932,10,1,1434
2,4,1933,10,1,1695
2,1,1934,10,1,1225
2,4,1935,10,1,2021
2,4,1936,10,1,1444
2,3,1937,10,1,1363
2,3,1938,10,1,1437
2,2,1939,10,1,1344
2,5,1940,10,1,1139
2,2,1941,10,1,1190
2,2,1942,10,1,1224
2,2,1943,10,1,1224
2,3,1944,10,1,1157
2,4,1945,10,1,1204
2,1,1946,10,1,1102
2,1,1947,10,1,1098
2,2,1948,10,1,2264
2,2,1949,10,1,1395
2,4,1950,10,1,1167
2,5,1951,10,1,1139
2,1,1952,10,1,1103
2,3,1953,10,1,1378
2,4,1954,10,1,1873
2,2,1955,10,1,1384
2,5,1956,10,1,1945
2,3,1957,10,1,1862
2,3,1958,10,1,1924
2,1,1959,10,1,1103
2,3,1960,10,1,2345
2,3,1961,10,1,1347
2,3,1962,10,1,1764
2,5,1963,10,1,1304
2,4,1964,10,1,1694
2,1,1965,10,1,1164
2,3,1966,10,1,2042
2,4,1967,10,1,2105
2,3,1968,10,1,1268
2,3,1969,10,1,1464
2,3,1970,10,1,1391
2,4,1971,10,1,1640
2,3,1972,10,1,1490
2,1,1973,10,1,1945
2,5,1974,10,1,1979
2,2,1975,10,1,1193
2,5,1976,10,1,1298
2,2,1977,10,1,1184
2,3,1978,10,1,2054
2,2,1979,10,1,1453
2,5,1980,10,1,1384
2,3,1981,10,1,1925
2,1,1982,10,1,1085
2,5,1983,10,1,1107
2,4,1984,10,1,1985
2,5,1985,10,1,1684
2,4,1986,10,1,1919
2,4,1987,10,1,1586
2,4,1988,10,1,1416
2,5,1989,10,1,1587
2,1,1990,10,1,1581
2,4,1991,10,1,1335
2,2,1992,10,1,1517
2,3,1993,10,1,1241
2,5,1994,10,1,1863
2,3,1995,10,1,1391
2,2,1996,10,1,1699
2,3,1997,10,1,1363
2,2,1998,10,1,1318
2,2,1999,10,1,1547
2,1,2000,11,1,1065
3,4,1,1,1,1140
3,4,2,1,1,1202
3,2,3,1,1,1023
3,3,4,1,1,2073
3,5,5,1,1,1264
3,1,6,1,1,974
3,4,7,1,1,1384
3,2,8,1,1,1085
3,5,9,1,1,1399
3,5,10,1,1,1180
3,3,11,1,1,1059
3,5,12,1,1,1217
3,2,13,1,1,1201
3,5,14,1,1,1583
3,4,15,1,1,1260
3,3,16,1,1,1025
3,4,17,1,1,1698
3,2,18,1,1,955
3,2,19,1,1,1229
3,2,20,1,1,1008
3,1,21,1,1,1029
3,2,22,1,1,1259
3,3,23,1,1,1481
3,4,24,1,1,1562
3,1,25,1,1,915
3,2,26,1,1,1144
3,4,27,1,1,1361
3,5,28,1,1,1203
3,5,29,1,1,465
3,4,30,1,1,1502
3,1,31,1,1,1084
3,3,32,1,1,1593
3,2,33,1,1,1185
3,5,34,1,1,2575
3,4,35,1,1,1919
3,1,36,1,1,1394
3,5,37,1,1,1233
3,3,38,1,1,1423
3,5,39,1,1,1272
3,1,40,1,1,919
3,4,41,1,1,1328
3,4,42,1,1,1350
3,3,43,1,1,1165
3,1,44,1,1,836
3,3,45,1,1,1224
3,5,46,1,1,1306
3,3,47,1,1,1489
3,1,48,1,1,877
3,5,49,1,1,1171
3,2,50,1,1,1472
3,4,51,1,1,1653
3,1,52,1,1,919
3,2,53,1,1,1387
3,3,54,1,1,1362
3,3,55,1,1,1259
3,1,56,1,1,1145
3,1,57,1,1,1181
3,3,58,1,1,1758
3,5,59,1,1,1559
3,1,60,1,1,1064
3,4,61,1,1,1396
3,1,62,1,1,980
3,5,63,1,1,1436
3,2,64,1,1,1232
3,4,65,1,1,2399
3,3,66,1,1,1483
3,5,67,1,1,1180
3,5,68,1,1,1282
3,1,69,1,1,1145
3,2,70,1,1,1467
3,3,71,1,1,964
3,2,72,1,1,1234
3,5,73,1,1,1182
3,2,74,1,1,1019
3,2,75,1,1,1243
3,4,76,1,1,1328
3,1,77,1,1,1266
3,3,78,1,1,1467
3,2,79,1,1,1366
3,2,80,1,1,1381
3,2,81,1,1,1163
3,5,82,1,1,1242
3,4,83,1,1,1464
3,3,84,1,1,1124
3,3,85,1,1,1758
3,5,86,1,1,1306
3,3,87,1,1,1285
3,5,88,1,1,1559
3,2,89,1,1,1048
3,3,90,1,1,1917
3,1,91,1,1,1362
3,3,92,1,1,1300
3,1,93,1,1,1026
3,3,94,1,1,1421
3,3,95,1,1,1602
3,1,96,1,1,1213
3,1,97,1,1,1026
3,1,98,1,1,1042
3,5,99,1,1,1443
3,1,100,1,1,1087
3,3,101,1,1,1381
3,1,102,1,1,915
3,2,103,1,1,1048
3,2,104,1,1,1184
3,3,105,1,1,1311
3,3,106,1,1,1564
3,1,107,1,1,904
3,4,108,1,1,973
3,2,109,1,1,1047
3,5,110,1,1,1093
3,4,111,1,1,1276
3,1,112,1,1,1087
3,5,113,1,1,1063
3,4,114,1,1,823
3,2,115,1,1,1042
3,3,116,1,1,1435
3,5,117,1,1,1136
3,5,118,1,1,1225
3,4,119,1,1,1577
3,5,120,1,1,1052
3,4,121,1,1,2128
3,1,122,1,1,893
3,1,123,1,1,1207
3,2,124,1,1,1323
3,4,125,1,1,1342
3,5,126,1,1,1616
3,3,127,1,1,1498
3,5,128,1,1,1124
3,5,129,1,1,1063
3,2,130,1,1,918
3,5,131,1,1,1323
3,1,132,1,1,1266
3,5,133,1,1,1247
3,5,134,1,1,1142
3,1,135,1,1,861
3,1,136,1,1,1094
3,2,137,1,1,1153
3,4,138,1,1,1464
3,3,139,1,1,1224
3,5,140,1,1,1242
3,1,141,1,1,980
3,5,142,1,1,1855
3,3,143,1,1,1780
3,1,144,1,1,1751
3,1,145,1,1,1183
3,3,146,1,1,1362
3,1,147,1,1,1265
3,2,148,1,1,1023
3,1,149,1,1,1084
3,1,150,1,1,962
3,5,151,1,1,1203
3,5,152,1,1,1356
3,4,153,1,1,1524
3,1,154,1,1,836
3,3,155,1,1,1137
3,5,156,1,1,1180
3,2,157,1,1,1085
3,3,158,1,1,1066
3,2,159,1,1,779
3,1,160,1,1,1064
3,2,161,1,1,1184
3,3,162,1,1,1421
3,5,163,1,1,1100
3,5,164,1,1,1163
3,3,165,1,1,774
3,4,166,1,1,1384
3,4,167,1,1,1128
3,1,168,1,1,926
3,3,169,1,1,1300
3,4,170,1,1,1684
3,5,171,1,1,1062
3,2,172,1,1,1042
3,5,173,1,1,1733
3,3,174,1,1,1362
3,2,175,1,1,908
3,5,176,1,1,1518
3,1,177,1,1,1751
3,1,178,1,1,914
3,5,179,1,1,1399
3,4,180,1,1,1396
3,1,181,1,1,947
3,4,182,1,1,1577
3,4,183,1,1,943
3,1,184,1,1,1029
3,3,185,1,1,2175
3,2,186,1,1,908
3,2,187,1,1,1529
3,4,188,1,1,1283
3,2,189,1,1,1439
3,1,190,1,1,855
3,5,191,1,1,1203
3,2,192,1,1,1019
3,5,193,1,1,1313
3,2,194,1,1,1047
3,5,195,1,1,1244
3,2,196,1,1,1259
3,3,197,1,1,1373
3,4,198,1,1,1147
3,2,199,1,1,955
3,1,200,2,1,1023
3,1,201,2,1,1274
3,2,202,2,1,1217
3,2,203,2,1,1403
3,2,204,2,1,1234
3,3,205,2,1,1237
3,1,206,2,1,1075
3,1,207,2,1,1543
3,2,208,2,1,1047
3,5,209,2,1,1323
3,3,210,2,1,1385
3,5,211,2,1,1244
3,5,212,2,1,1264
3,1,213,2,1,894
3,2,214,2,1,1124
3,1,215,2,1,1543
3,1,216,2,1,986
3,2,217,2,1,994
3,4,218,2,1,1180
3,1,219,2,1,1029
3,2,220,2,1,1381
3,2,221,2,1,1098
3,4,222,2,1,1059
3,1,223,2,1,1201
3,2,224,2,1,1055
3,1,225,2,1,962
3,5,226,2,1,1306
3,5,227,2,1,1504
3,2,228,2,1,1439
3,1,229,2,1,1023
3,5,230,2,1,924
3,3,231,2,1,1149
3,2,232,2,1,1115
3,2,233,2,1,1100
3,2,234,2,1,925
3,5,235,2,1,1100
3,1,236,2,1,1274
3,4,237,2,1,1396
3,5,238,2,1,1109
3,4,239,2,0,NA
3,3,240,2,1,1446
3,3,241,2,1,1421
3,5,242,2,1,1323
3,5,243,2,1,1203
3,1,244,2,1,999
3,5,245,2,1,1282
3,3,246,2,1,1165
3,4,247,2,1,1022
3,2,248,2,1,1225
3,4,249,2,1,1502
3,4,250,2,1,1248
3,2,251,2,1,1467
3,4,252,2,1,1260
3,3,253,2,1,1149
3,4,254,2,1,1543
3,2,255,2,1,1232
3,3,256,2,1,774
3,5,257,2,1,1285
3,4,258,2,1,2735
3,5,259,2,1,905
3,5,260,2,1,1226
3,4,261,2,1,1140
3,3,262,2,1,1593
3,2,263,2,1,955
3,1,264,2,1,1213
3,1,265,2,1,986
3,2,266,2,1,1358
3,3,267,2,1,564
3,5,268,2,1,1101
3,5,269,2,1,1513
3,2,270,2,1,1124
3,5,271,2,1,855
3,1,272,2,1,1334
3,3,273,2,1,1311
3,5,274,2,1,1623
3,2,275,2,1,1387
3,1,276,2,1,961
3,5,277,2,1,1206
3,1,278,2,1,1121
3,1,279,2,1,861
3,3,280,2,1,1159
3,3,281,2,1,1481
3,3,282,2,1,1917
3,5,283,2,1,1265
3,2,284,2,1,987
3,4,285,2,1,1507
3,4,286,2,1,1203
3,3,287,2,1,1628
3,4,288,2,1,1620
3,3,289,2,1,1066
3,3,290,2,1,1373
3,2,291,2,1,1247
3,5,292,2,1,1809
3,5,293,2,1,1145
3,3,294,2,1,1381
3,3,295,2,1,1758
3,1,296,2,1,1207
3,4,297,2,1,1128
3,4,298,2,1,1779
3,5,299,2,1,1504
3,4,300,2,1,1473
3,2,301,2,1,1019
3,4,302,2,1,1243
3,5,303,2,1,1436
3,3,304,2,1,935
3,2,305,2,1,1116
3,1,306,2,1,1029
3,3,307,2,1,1294
3,2,308,2,1,955
3,3,309,2,1,1092
3,5,310,2,1,1145
3,4,311,2,1,923
3,2,312,2,1,1201
3,2,313,2,1,1393
3,1,314,2,1,976
3,1,315,2,1,991
3,1,316,2,1,1064
3,1,317,2,1,1047
3,2,318,2,1,1284
3,2,319,2,1,1140
3,3,320,2,1,1513
3,1,321,2,1,1266
3,3,322,2,1,1281
3,2,323,2,1,1007
3,3,324,2,1,2175
3,1,325,2,1,1066
3,3,326,2,1,1514
3,3,327,2,1,964
3,5,328,2,1,1323
3,2,329,2,1,2072
3,2,330,2,1,1023
3,2,331,2,1,1280
3,1,332,2,1,911
3,4,333,2,1,1926
3,2,334,2,1,1387
3,1,335,2,1,921
3,2,336,2,1,1247
3,4,337,2,1,1306
3,2,338,2,1,1163
3,1,339,2,1,926
3,4,340,2,1,1117
3,1,341,2,1,1243
3,2,342,2,1,1294
3,1,343,2,1,991
3,5,344,2,1,1247
3,3,345,2,1,774
3,5,346,2,1,1399
3,1,347,2,1,903
3,4,348,2,1,1059
3,3,349,2,1,1243
3,4,350,2,1,1328
3,1,351,2,1,546
3,2,352,2,1,1381
3,3,353,2,1,1263
3,1,354,2,1,1066
3,5,355,2,1,1140
3,1,356,2,1,1047
3,3,357,2,1,1092
3,4,358,2,1,1779
3,2,359,2,1,1137
3,5,360,2,1,1272
3,2,361,2,1,1294
3,2,362,2,1,1073
3,3,363,2,1,1124
3,3,364,2,1,1013
3,3,365,2,1,1065
3,2,366,2,1,1232
3,3,367,2,1,1296
3,4,368,2,1,1206
3,4,369,2,1,931
3,1,370,2,1,1023
3,2,371,2,1,1276
3,5,372,2,1,1034
3,3,373,2,1,1186
3,5,374,2,1,1182
3,5,375,2,1,1140
3,4,376,2,1,1620
3,4,377,2,1,1059
3,5,378,2,1,1243
3,5,379,2,1,965
3,2,380,2,1,1323
3,3,381,2,1,1385
3,4,382,2,1,1384
3,4,383,2,1,1276
3,1,384,2,1,1207
3,2,385,2,1,1274
3,5,386,2,1,1323
3,5,387,2,1,1180
3,5,388,2,1,465
3,1,389,2,1,999
3,3,390,2,1,1323
3,5,391,2,1,1623
3,4,392,2,1,1303
3,5,393,2,1,1549
3,1,394,2,1,1026
3,3,395,2,1,1473
3,5,396,2,1,2051
3,3,397,2,1,1281
3,3,398,2,1,1294
3,4,399,2,1,1100
3,5,400,3,1,1180
3,3,401,3,1,1044
3,4,402,3,1,1303
3,3,403,3,1,1317
3,1,404,3,1,824
3,1,405,3,1,919
3,4,406,3,1,1202
3,1,407,3,1,1066
3,4,408,3,1,1350
3,2,409,3,1,1598
3,2,410,3,1,1259
3,3,411,3,1,1385
3,4,412,3,1,1405
3,1,413,3,1,1243
3,3,414,3,1,1296
3,4,415,3,1,1606
3,2,416,3,1,1439
3,4,417,3,1,1260
3,1,418,3,1,1243
3,4,419,3,1,1517
3,2,420,3,1,1280
3,4,421,3,1,1022
3,5,422,3,1,1140
3,3,423,3,1,1281
3,4,424,3,1,1620
3,5,425,3,1,1225
3,3,426,3,1,1059
3,5,427,3,1,1163
3,5,428,3,1,1109
3,5,429,3,1,943
3,5,430,3,1,1163
3,4,431,3,1,1473
3,4,432,3,1,1543
3,5,433,3,1,1233
3,2,434,3,1,1472
3,5,435,3,1,1181
3,5,436,3,1,2051
3,4,437,3,1,1162
3,4,438,3,1,1405
3,3,439,3,1,1347
3,1,440,3,1,1241
3,1,441,3,1,947
3,3,442,3,1,1290
3,1,443,3,1,1377
3,4,444,3,1,1103
3,3,445,3,1,1362
3,1,446,3,1,926
3,3,447,3,1,1347
3,5,448,3,1,1285
3,1,449,3,1,1042
3,2,450,3,1,1678
3,5,451,3,1,1101
3,4,452,3,1,1283
3,5,453,3,0,NA
3,5,454,3,1,465
3,5,455,3,1,1306
3,4,456,3,1,1517
3,1,457,3,1,1266
3,3,458,3,1,1955
3,5,459,3,1,1356
3,4,460,3,1,1577
3,5,461,3,1,1243
3,3,462,3,1,1448
3,1,463,3,1,1023
3,4,464,3,1,1919
3,2,465,3,1,1276
3,2,466,3,1,1243
3,3,467,3,1,1178
3,3,468,3,1,1165
3,2,469,3,1,1233
3,5,470,3,1,1226
3,3,471,3,1,1404
3,4,472,3,1,1123
3,5,473,3,1,1382
3,5,474,3,1,1313
3,4,475,3,1,1180
3,1,476,3,1,923
3,3,477,3,1,1483
3,4,478,3,1,1606
3,4,479,3,1,1203
3,2,480,3,1,1137
3,4,481,3,1,1926
3,4,482,3,1,1202
3,4,483,3,1,1361
3,4,484,3,1,1919
3,5,485,3,1,784
3,1,486,3,1,1042
3,4,487,3,1,1303
3,5,488,3,1,1243
3,4,489,3,1,1328
3,4,490,3,1,1698
3,3,491,3,1,1445
3,4,492,3,1,1606
3,5,493,3,1,1225
3,2,494,3,1,987
3,4,495,3,1,1248
3,5,496,3,1,1224
3,2,497,3,1,1598
3,1,498,3,1,962
3,4,499,3,1,1778
3,2,500,3,1,1233
3,3,501,3,1,1423
3,1,502,3,1,986
3,5,503,3,1,1306
3,4,504,3,1,1028
3,3,505,3,1,1325
3,4,506,3,1,1028
3,4,507,3,1,1425
3,2,508,3,1,1201
3,1,509,3,1,846
3,2,510,3,1,1417
3,3,511,3,1,1259
3,1,512,3,1,1362
3,5,513,3,1,1100
3,2,514,3,1,1025
3,2,515,3,1,1704
3,1,516,3,1,846
3,5,517,3,1,1327
3,3,518,3,1,1481
3,2,519,3,1,1193
3,2,520,3,1,1137
3,3,521,3,1,1381
3,4,522,3,1,2128
3,2,523,3,1,1229
3,2,524,3,1,929
3,5,525,3,1,1226
3,2,526,3,1,1124
3,1,527,3,1,855
3,5,528,3,1,1436
3,5,529,3,1,965
3,4,530,3,1,1698
3,4,531,3,1,1128
3,5,532,3,1,1136
3,5,533,3,0,NA
3,2,534,3,1,1023
3,2,535,3,1,1116
3,5,536,3,1,1217
3,3,537,3,1,1237
3,5,538,3,1,1109
3,2,539,3,1,1115
3,2,540,3,1,1276
3,3,541,3,1,1322
3,4,542,3,1,1684
3,5,543,3,1,1600
3,4,544,3,1,1248
3,4,545,3,1,1406
3,5,546,3,1,965
3,2,547,3,1,1184
3,4,548,3,1,1502
3,1,549,3,1,1155
3,4,550,3,1,1206
3,5,551,3,1,1265
3,2,552,3,1,1023
3,2,553,3,1,1047
3,4,554,3,1,996
3,2,555,3,1,1153
3,3,556,3,1,1362
3,3,557,3,1,1917
3,1,558,3,1,915
3,2,559,3,1,1098
3,2,560,3,1,1234
3,5,561,3,1,1265
3,2,562,3,1,1184
3,2,563,3,1,1598
3,4,564,3,1,1306
3,3,565,3,1,1175
3,1,566,3,1,958
3,4,567,3,1,1247
3,5,568,3,1,1303
3,5,569,3,1,1382
3,1,570,3,1,893
3,1,571,3,1,1023
3,2,572,3,1,1181
3,3,573,3,1,1322
3,3,574,3,1,1780
3,3,575,3,1,1593
3,1,576,3,1,991
3,5,577,3,1,1034
3,4,578,3,1,1396
3,1,579,3,1,1079
3,4,580,3,1,1203
3,4,581,3,1,1342
3,2,582,3,1,1704
3,2,583,3,1,1227
3,5,584,3,1,1819
3,5,585,3,1,1616
3,3,586,3,1,1283
3,1,587,3,1,980
3,2,588,3,1,1472
3,3,589,3,1,1285
3,5,590,3,1,1171
3,2,591,3,1,1280
3,5,592,3,1,1733
3,4,593,3,1,1162
3,1,594,3,1,1377
3,3,595,3,1,1044
3,5,596,3,1,1034
3,2,597,3,1,1019
3,1,598,3,1,962
3,2,599,3,1,1137
3,4,600,4,1,2128
3,4,601,4,1,996
3,5,602,4,1,1181
3,2,603,4,1,1417
3,1,604,4,1,1042
3,5,605,4,1,1616
3,3,606,4,1,1026
3,5,607,4,1,1583
3,1,608,4,1,1183
3,2,609,4,1,1284
3,2,610,4,1,1323
3,3,611,4,1,935
3,3,612,4,1,1243
3,4,613,4,1,1653
3,5,614,4,1,1182
3,4,615,4,1,1103
3,3,616,4,1,1917
3,2,617,4,1,1100
3,2,618,4,1,1042
3,5,619,4,1,1124
3,3,620,4,1,1026
3,1,621,4,1,980
3,1,622,4,1,1241
3,3,623,4,1,1435
3,2,624,4,1,1025
3,4,625,4,1,1406
3,5,626,4,1,1142
3,4,627,4,1,1653
3,5,628,4,1,1244
3,2,629,4,1,1007
3,5,630,4,1,1285
3,5,631,4,1,990
3,2,632,4,1,1113
3,1,633,4,1,1105
3,1,634,4,1,1543
3,1,635,4,1,1047
3,1,636,4,1,1394
3,4,637,4,1,996
3,1,638,4,1,1047
3,4,639,4,1,1517
3,1,640,4,1,1181
3,1,641,4,1,1019
3,5,642,4,1,1819
3,4,643,4,1,1095
3,4,644,4,1,1577
3,2,645,4,1,1652
3,2,646,4,1,1393
3,1,647,4,1,1207
3,3,648,4,1,1362
3,2,649,4,1,1229
3,5,650,4,1,1180
3,3,651,4,1,1059
3,3,652,4,1,564
3,5,653,4,1,1206
3,1,654,4,1,946
3,5,655,4,1,924
3,4,656,4,1,1103
3,1,657,4,1,914
3,4,658,4,1,2142
3,1,659,4,1,1019
3,1,660,4,1,1334
3,3,661,4,1,1186
3,4,662,4,1,1716
3,3,663,4,1,1186
3,1,664,4,1,921
3,5,665,4,1,1034
3,5,666,4,1,1323
3,4,667,4,1,1926
3,1,668,4,1,937
3,2,669,4,1,1217
3,3,670,4,1,1159
3,1,671,4,1,1183
3,3,672,4,1,1564
3,5,673,4,1,1436
3,3,674,4,1,1634
3,3,675,4,1,1263
3,2,676,4,1,1042
3,3,677,4,1,1013
3,1,678,4,1,1084
3,5,679,4,1,1242
3,3,680,4,1,1628
3,4,681,4,1,1147
3,4,682,4,1,1117
3,3,683,4,1,1513
3,2,684,4,1,1481
3,2,685,4,1,2072
3,3,686,4,1,1281
3,3,687,4,1,1483
3,1,688,4,1,786
3,1,689,4,1,846
3,3,690,4,1,1456
3,4,691,4,1,1377
3,1,692,4,1,877
3,3,693,4,1,564
3,3,694,4,1,1446
3,5,695,4,1,1145
3,1,696,4,1,1042
3,2,697,4,1,1704
3,3,698,4,1,1149
3,5,699,4,1,1247
3,3,700,4,1,1283
3,2,701,4,1,1201
3,1,702,4,1,1083
3,1,703,4,1,1019
3,1,704,4,1,894
3,2,705,4,1,1678
3,4,706,4,1,1653
3,5,707,4,1,1233
3,5,708,4,1,2575
3,2,709,4,1,1294
3,1,710,4,1,948
3,4,711,4,1,1059
3,5,712,4,1,1151
3,4,713,4,1,1577
3,4,714,4,1,1716
3,1,715,4,1,846
3,3,716,4,1,1498
3,3,717,4,1,1066
3,4,718,4,1,1425
3,1,719,4,1,1274
3,5,720,4,1,1224
3,5,721,4,1,990
3,3,722,4,1,1347
3,3,723,4,1,1224
3,2,724,4,1,1274
3,4,725,4,1,1778
3,5,726,4,1,1809
3,2,727,4,1,908
3,4,728,4,1,1303
3,5,729,4,1,465
3,1,730,4,1,1121
3,4,731,4,1,2735
3,3,732,4,1,2073
3,2,733,4,1,1366
3,5,734,4,1,1304
3,2,735,4,1,1100
3,1,736,4,1,1394
3,2,737,4,1,1023
3,5,738,4,1,1306
3,1,739,4,1,964
3,4,740,4,1,1128
3,1,741,4,1,1201
3,3,742,4,1,1237
3,2,743,4,1,1008
3,3,744,4,1,1362
3,3,745,4,1,1178
3,2,746,4,1,1234
3,4,747,4,1,1328
3,3,748,4,1,1026
3,5,749,4,1,1062
3,1,750,4,1,1047
3,1,751,4,1,1094
3,3,752,4,1,1474
3,1,753,4,1,1213
3,4,754,4,1,1206
3,4,755,4,1,996
3,1,756,4,1,937
3,5,757,4,1,1518
3,2,758,4,1,1529
3,2,759,4,1,1229
3,1,760,4,1,1075
3,1,761,4,1,1064
3,4,762,4,1,1243
3,4,763,4,1,2399
3,2,764,4,1,1098
3,2,765,4,1,1140
3,1,766,4,1,1181
3,2,767,4,1,1193
3,4,768,4,1,1328
3,2,769,4,1,977
3,2,770,4,1,1181
3,3,771,4,1,1300
3,3,772,4,1,1385
3,3,773,4,1,1178
3,5,774,4,1,1052
3,5,775,4,1,1233
3,2,776,4,1,1116
3,4,777,4,1,1342
3,4,778,4,1,1405
3,1,779,4,1,1183
3,1,780,4,1,1026
3,1,781,4,1,941
3,3,782,4,1,564
3,2,783,4,1,1023
3,1,784,4,1,1023
3,4,785,4,1,1350
3,5,786,4,1,1549
3,5,787,4,1,1306
3,2,788,4,1,1042
3,2,789,4,1,779
3,5,790,4,1,1443
3,3,791,4,1,1435
3,5,792,4,1,1264
3,3,793,4,1,1317
3,4,794,4,1,2128
3,2,795,4,1,1302
3,5,796,4,1,1327
3,3,797,4,1,1421
3,1,798,4,1,1201
3,2,799,4,1,1387
3,1,800,5,1,1155
3,3,801,5,1,1698
3,4,802,5,1,1180
3,4,803,5,1,1562
3,3,804,5,1,1404
3,3,805,5,1,1290
3,5,806,5,1,1142
3,1,807,5,1,1079
3,1,808,5,1,976
3,5,809,5,1,965
3,3,810,5,1,774
3,2,811,5,1,1181
3,5,812,5,1,1600
3,1,813,5,1,926
3,4,814,5,1,1344
3,3,815,5,1,1083
3,2,816,5,1,1403
3,4,817,5,1,1507
3,4,818,5,0,NA
3,3,819,5,1,1514
3,1,820,5,1,1094
3,2,821,5,1,1042
3,5,822,5,1,1062
3,3,823,5,1,1263
3,1,824,5,1,1362
3,3,825,5,1,1178
3,1,826,5,1,965
3,4,827,5,1,1543
3,4,828,5,1,1962
3,3,829,5,1,1083
3,1,830,5,1,1241
3,2,831,5,1,1113
3,2,832,5,1,1225
3,1,833,5,1,1213
3,1,834,5,1,877
3,4,835,5,1,1264
3,4,836,5,1,1147
3,2,837,5,1,1144
3,4,838,5,1,1562
3,3,839,5,1,2073
3,1,840,5,1,941
3,4,841,5,1,1203
3,4,842,5,1,2163
3,1,843,5,1,948
3,5,844,5,1,1285
3,1,845,5,1,1751
3,5,846,5,1,1600
3,1,847,5,1,1377
3,5,848,5,1,1327
3,5,849,5,1,1819
3,3,850,5,1,2073
3,1,851,5,1,953
3,4,852,5,1,1684
3,1,853,5,1,1183
3,4,854,5,1,823
3,2,855,5,1,1439
3,1,856,5,1,894
3,3,857,5,1,1347
3,4,858,5,1,1202
3,3,859,5,1,1448
3,1,860,5,1,958
3,2,861,5,1,1185
3,3,862,5,1,1165
3,4,863,5,1,1180
3,2,864,5,1,1113
3,2,865,5,1,1652
3,3,866,5,1,1294
3,1,867,5,1,855
3,2,868,5,1,1704
3,3,869,5,1,1474
3,1,870,5,1,962
3,2,871,5,1,1074
3,3,872,5,1,1362
3,5,873,5,1,1052
3,4,874,5,1,923
3,1,875,5,1,786
3,5,876,5,1,965
3,5,877,5,1,1101
3,4,878,5,1,1962
3,5,879,5,1,1323
3,5,880,5,1,1217
3,1,881,5,1,914
3,4,882,5,1,1059
3,3,883,5,1,1564
3,4,884,5,1,1123
3,1,885,5,1,1543
3,3,886,5,1,1044
3,5,887,5,1,1313
3,2,888,5,1,1008
3,4,889,5,1,1094
3,2,890,5,1,1227
3,5,891,5,1,1243
3,2,892,5,1,1074
3,2,893,5,1,1163
3,4,894,5,1,2142
3,2,895,5,1,1113
3,1,896,5,1,1079
3,5,897,5,1,1203
3,2,898,5,1,908
3,2,899,5,1,1481
3,2,900,5,1,1115
3,1,901,5,1,941
3,2,902,5,1,1247
3,5,903,5,1,1513
3,4,904,5,1,1517
3,4,905,5,1,1066
3,3,906,5,1,1404
3,3,907,5,1,1065
3,4,908,5,1,1425
3,2,909,5,1,1652
3,3,910,5,1,1698
3,4,911,5,1,1620
3,5,912,5,1,1549
3,2,913,5,1,1193
3,1,914,5,1,943
3,4,915,5,1,1577
3,2,916,5,1,1379
3,1,917,5,1,1155
3,1,918,5,1,1083
3,5,919,5,1,1282
3,1,920,5,1,964
3,5,921,5,1,924
3,1,922,5,1,904
3,4,923,5,1,1123
3,2,924,5,1,1042
3,3,925,5,1,1294
3,1,926,5,1,824
3,3,927,5,1,1290
3,5,928,5,1,1243
3,4,929,5,1,1778
3,5,930,5,1,1063
3,5,931,5,1,1855
3,3,932,5,1,935
3,2,933,5,1,918
3,3,934,5,1,1092
3,1,935,5,1,1241
3,2,936,5,1,1604
3,4,937,5,1,1382
3,1,938,5,1,947
3,2,939,5,1,1185
3,2,940,5,1,1243
3,4,941,5,1,1344
3,2,942,5,1,1604
3,4,943,5,1,1059
3,2,944,5,1,1048
3,2,945,5,1,1604
3,2,946,5,1,779
3,3,947,5,1,1263
3,3,948,5,1,964
3,1,949,5,1,926
3,2,950,5,1,1140
3,4,951,5,1,1162
3,3,952,5,1,1026
3,5,953,5,1,1179
3,1,954,5,1,943
3,4,955,5,1,1162
3,3,956,5,1,1285
3,4,957,5,1,1425
3,1,958,5,1,915
3,3,959,5,1,1513
3,2,960,5,1,1227
3,1,961,5,1,546
3,4,962,5,1,1577
3,4,963,5,1,1248
3,3,964,5,1,1243
3,2,965,5,1,1042
3,1,966,5,1,974
3,4,967,5,1,1205
3,5,968,5,1,1052
3,3,969,5,1,1698
3,3,970,5,1,1137
3,4,971,5,1,1243
3,4,972,5,1,923
3,4,973,5,1,1283
3,5,974,5,1,943
3,3,975,5,1,1446
3,3,976,5,1,1092
3,2,977,5,1,1042
3,5,978,5,1,1101
3,2,979,5,1,1274
3,5,980,5,1,1513
3,1,981,5,1,986
3,2,982,5,1,1055
3,2,983,5,1,918
3,5,984,5,1,1179
3,3,985,5,1,1593
3,5,986,5,1,990
3,2,987,5,1,987
3,1,988,5,1,1023
3,2,989,5,1,1358
3,3,990,5,1,2175
3,4,991,5,1,1247
3,5,992,5,1,1309
3,1,993,5,1,914
3,1,994,5,1,1243
3,2,995,5,1,1247
3,5,996,5,1,1062
3,3,997,5,1,1513
3,4,998,5,1,931
3,1,999,5,1,964
3,4,1000,6,1,1328
3,3,1001,6,1,1323
3,1,1002,6,1,1042
3,3,1003,6,1,964
3,3,1004,6,1,1362
3,5,1005,6,1,1062
3,2,1006,6,1,1302
3,2,1007,6,1,1227
3,2,1008,6,1,1358
3,2,1009,6,1,1403
3,5,1010,6,1,1382
3,1,1011,6,1,1083
3,1,1012,6,1,861
3,2,1013,6,1,1217
3,5,1014,6,1,1142
3,2,1015,6,1,1055
3,4,1016,6,1,1384
3,1,1017,6,1,903
3,4,1018,6,1,1543
3,5,1019,6,1,1303
3,1,1020,6,1,861
3,4,1021,6,1,1279
3,3,1022,6,1,1435
3,2,1023,6,1,1247
3,4,1024,6,1,1264
3,1,1025,6,1,1075
3,3,1026,6,1,1317
3,1,1027,6,1,1026
3,3,1028,6,1,1446
3,2,1029,6,1,1048
3,5,1030,6,1,1101
3,3,1031,6,1,1025
3,3,1032,6,1,1224
3,1,1033,6,1,903
3,5,1034,6,1,855
3,1,1035,6,1,824
3,1,1036,6,1,974
3,2,1037,6,1,1153
3,1,1038,6,1,1213
3,1,1039,6,1,1237
3,4,1040,6,1,1671
3,2,1041,6,1,1294
3,4,1042,6,1,1162
3,4,1043,6,1,1108
3,1,1044,6,1,1265
3,1,1045,6,1,941
3,2,1046,6,1,1116
3,5,1047,6,1,1109
3,3,1048,6,1,1263
3,1,1049,6,1,1042
3,3,1050,6,1,1013
3,5,1051,6,1,1128
3,1,1052,6,1,958
3,5,1053,6,1,1203
3,1,1054,6,1,1108
3,3,1055,6,1,1317
3,5,1056,6,1,1436
3,1,1057,6,1,961
3,3,1058,6,1,1092
3,4,1059,6,1,1248
3,5,1060,6,1,2051
3,1,1061,6,1,1042
3,3,1062,6,1,1159
3,4,1063,6,1,1108
3,5,1064,6,1,1163
3,2,1065,6,1,1417
3,5,1066,6,1,943
3,4,1067,6,1,1123
3,1,1068,6,1,904
3,5,1069,6,1,1109
3,2,1070,6,1,1225
3,3,1071,6,1,1149
3,3,1072,6,1,1563
3,4,1073,6,1,2163
3,3,1074,6,1,1373
3,1,1075,6,1,855
3,2,1076,6,1,1274
3,1,1077,6,1,1241
3,1,1078,6,1,937
3,4,1079,6,1,1473
3,4,1080,6,1,1517
3,2,1081,6,1,1201
3,1,1082,6,1,923
3,3,1083,6,1,1347
3,4,1084,6,1,1095
3,5,1085,6,1,1306
3,1,1086,6,1,893
3,2,1087,6,1,1116
3,3,1088,6,1,1083
3,1,1089,6,1,1042
3,1,1090,6,1,1019
3,2,1091,6,1,1604
3,2,1092,6,1,1284
3,3,1093,6,1,1602
3,1,1094,6,1,991
3,3,1095,6,1,1259
3,2,1096,6,1,1393
3,1,1097,6,1,943
3,5,1098,6,1,1136
3,1,1099,6,1,965
3,2,1100,6,1,1098
3,4,1101,6,1,1507
3,2,1102,6,1,929
3,2,1103,6,1,1217
3,4,1104,6,1,1382
3,2,1105,6,1,1472
3,4,1106,6,1,973
3,1,1107,6,1,1377
3,3,1108,6,1,1296
3,3,1109,6,1,1283
3,4,1110,6,1,1779
3,5,1111,6,1,1504
3,5,1112,6,1,1559
3,5,1113,6,1,1242
3,5,1114,6,1,1304
3,5,1115,6,0,NA
3,2,1116,6,1,1403
3,2,1117,6,1,918
3,1,1118,6,1,1083
3,2,1119,6,1,1280
3,2,1120,6,1,1047
3,2,1121,6,1,1163
3,1,1122,6,1,937
3,3,1123,6,1,1473
3,4,1124,6,1,1279
3,5,1125,6,1,1313
3,5,1126,6,1,1356
3,5,1127,6,1,1313
3,5,1128,6,1,2575
3,4,1129,6,1,1344
3,1,1130,6,1,893
3,4,1131,6,1,1147
3,2,1132,6,1,1065
3,1,1133,6,1,546
3,5,1134,6,1,1443
3,5,1135,6,1,1855
3,3,1136,6,1,1290
3,2,1137,6,1,1403
3,4,1138,6,1,1066
3,1,1139,6,1,1145
3,4,1140,6,1,931
3,2,1141,6,1,1025
3,5,1142,6,1,1217
3,4,1143,6,1,1382
3,3,1144,6,1,1780
3,4,1145,6,1,1028
3,3,1146,6,1,1563
3,3,1147,6,1,1025
3,5,1148,6,1,1171
3,1,1149,6,1,1201
3,5,1150,6,1,1226
3,5,1151,6,1,905
3,1,1152,6,1,943
3,2,1153,6,1,1085
3,3,1154,6,1,1634
3,5,1155,6,1,1281
3,5,1156,6,1,1272
3,1,1157,6,1,903
3,3,1158,6,1,1474
3,5,1159,6,1,1752
3,1,1160,6,1,1181
3,4,1161,6,1,1108
3,4,1162,6,1,996
3,5,1163,6,1,924
3,4,1164,6,1,1507
3,2,1165,6,1,1259
3,1,1166,6,1,1362
3,1,1167,6,1,926
3,4,1168,6,1,1059
3,5,1169,6,1,1136
3,4,1170,6,1,1279
3,3,1171,6,1,1322
3,3,1172,6,1,1300
3,4,1173,6,1,1912
3,1,1174,6,1,1751
3,5,1175,6,1,1136
3,2,1176,6,1,1233
3,3,1177,6,1,1175
3,3,1178,6,1,1098
3,2,1179,6,1,1294
3,2,1180,6,1,1025
3,4,1181,6,1,2735
3,2,1182,6,1,1062
3,3,1183,6,1,1955
3,5,1184,6,1,1225
3,5,1185,6,1,1247
3,4,1186,6,1,1306
3,1,1187,6,1,1083
3,1,1188,6,1,911
3,3,1189,6,1,1955
3,3,1190,6,1,1237
3,3,1191,6,1,1473
3,4,1192,6,1,1464
3,4,1193,6,1,1202
3,5,1194,6,1,1272
3,5,1195,6,0,NA
3,4,1196,6,1,1066
3,4,1197,6,1,1028
3,3,1198,6,1,1263
3,2,1199,6,1,1323
3,5,1200,7,1,1128
3,4,1201,7,1,1382
3,4,1202,7,1,1279
3,3,1203,7,1,1165
3,3,1204,7,1,1564
3,2,1205,7,1,1042
3,3,1206,7,1,1489
3,4,1207,7,1,1117
3,4,1208,7,1,1094
3,4,1209,7,1,1022
3,3,1210,7,1,1467
3,5,1211,7,1,1226
3,5,1212,7,1,1504
3,2,1213,7,1,1472
3,4,1214,7,1,1524
3,5,1215,7,1,1140
3,1,1216,7,1,991
3,1,1217,7,1,915
3,3,1218,7,1,1780
3,4,1219,7,1,1606
3,5,1220,7,1,1855
3,4,1221,7,1,1342
3,3,1222,7,1,1498
3,3,1223,7,1,1263
3,2,1224,7,1,1481
3,5,1225,7,1,990
3,3,1226,7,1,1758
3,5,1227,7,1,1443
3,2,1228,7,1,1467
3,2,1229,7,1,1047
3,1,1230,7,1,893
3,2,1231,7,1,1137
3,2,1232,7,1,929
3,5,1233,7,1,1356
3,5,1234,7,1,1224
3,5,1235,7,1,1583
3,3,1236,7,1,1489
3,5,1237,7,1,943
3,3,1238,7,1,1317
3,5,1239,7,1,1819
3,5,1240,7,1,1309
3,1,1241,7,1,1237
3,5,1242,7,1,1243
3,5,1243,7,1,1100
3,2,1244,7,1,1185
3,2,1245,7,1,1276
3,3,1246,7,1,1489
3,2,1247,7,1,1323
3,3,1248,7,1,1281
3,5,1249,7,1,1145
3,3,1250,7,1,1137
3,2,1251,7,1,1379
3,2,1252,7,1,1481
3,3,1253,7,1,1634
3,1,1254,7,1,855
3,2,1255,7,1,2072
3,3,1256,7,1,1514
3,1,1257,7,1,1145
3,3,1258,7,1,1159
3,1,1259,7,1,1181
3,4,1260,7,1,1205
3,4,1261,7,1,1361
3,2,1262,7,1,1678
3,3,1263,7,1,1325
3,5,1264,7,1,1306
3,3,1265,7,1,1955
3,4,1266,7,1,1684
3,4,1267,7,1,1108
3,1,1268,7,1,1183
3,1,1269,7,1,1145
3,4,1270,7,1,1066
3,2,1271,7,1,1381
3,2,1272,7,1,1007
3,3,1273,7,1,1445
3,1,1274,7,1,974
3,5,1275,7,1,855
3,3,1276,7,1,1385
3,3,1277,7,1,1065
3,2,1278,7,1,1403
3,1,1279,7,1,965
3,2,1280,7,1,1403
3,4,1281,7,1,1276
3,5,1282,7,1,1265
3,2,1283,7,1,1379
3,2,1284,7,1,1055
3,2,1285,7,1,1193
3,2,1286,7,1,1025
3,4,1287,7,1,1059
3,5,1288,7,1,1142
3,5,1289,7,1,1128
3,5,1290,7,1,1809
3,1,1291,7,1,1108
3,1,1292,7,1,976
3,3,1293,7,1,1137
3,5,1294,7,1,1304
3,5,1295,7,1,1163
3,3,1296,7,1,1602
3,2,1297,7,1,1274
3,2,1298,7,1,1055
3,5,1299,7,1,1180
3,1,1300,7,1,1094
3,4,1301,7,1,1694
3,3,1302,7,1,1563
3,4,1303,7,1,1205
3,5,1304,7,1,1180
3,2,1305,7,1,1184
3,3,1306,7,1,1513
3,5,1307,7,1,1309
3,1,1308,7,1,999
3,1,1309,7,1,962
3,2,1310,7,1,1232
3,5,1311,7,0,NA
3,3,1312,7,1,1445
3,1,1313,7,1,953
3,5,1314,7,1,1171
3,4,1315,7,1,1464
3,1,1316,7,1,1334
3,3,1317,7,1,1178
3,3,1318,7,1,1513
3,3,1319,7,1,1013
3,4,1320,7,1,931
3,3,1321,7,1,1443
3,1,1322,7,1,976
3,4,1323,7,1,2163
3,3,1324,7,1,1955
3,1,1325,7,1,1237
3,1,1326,7,1,1266
3,5,1327,7,1,1327
3,4,1328,7,1,931
3,3,1329,7,1,1456
3,5,1330,7,1,905
3,4,1331,7,1,1095
3,1,1332,7,1,962
3,3,1333,7,1,1483
3,1,1334,7,1,1066
3,5,1335,7,1,1225
3,5,1336,7,1,855
3,2,1337,7,1,1393
3,2,1338,7,1,1529
3,5,1339,7,1,1272
3,5,1340,7,1,1304
3,1,1341,7,1,1087
3,4,1342,7,1,1328
3,5,1343,7,1,2051
3,4,1344,7,1,1405
3,3,1345,7,1,1323
3,3,1346,7,1,1311
3,4,1347,7,1,943
3,4,1348,7,1,1260
3,2,1349,7,1,987
3,4,1350,7,1,1606
3,1,1351,7,1,961
3,2,1352,7,1,1140
3,1,1353,7,1,914
3,1,1354,7,1,946
3,5,1355,7,1,905
3,4,1356,7,1,1247
3,5,1357,7,1,1264
3,4,1358,7,1,1342
3,5,1359,7,1,905
3,4,1360,7,1,1247
3,3,1361,7,1,935
3,3,1362,7,1,1513
3,1,1363,7,1,1075
3,2,1364,7,1,1144
3,5,1365,7,1,990
3,2,1366,7,1,1008
3,5,1367,7,1,855
3,2,1368,7,1,1217
3,1,1369,7,1,965
3,4,1370,7,1,1103
3,2,1371,7,1,1073
3,5,1372,7,1,1224
3,4,1373,7,1,1206
3,4,1374,7,1,1716
3,1,1375,7,1,953
3,5,1376,7,1,784
3,4,1377,7,0,1577
3,4,1378,7,1,1464
3,5,1379,7,1,1443
3,3,1380,7,1,1124
3,3,1381,7,1,1563
3,1,1382,7,1,1265
3,2,1383,7,1,2072
3,3,1384,7,1,1124
3,4,1385,7,1,2163
3,3,1386,7,1,1423
3,2,1387,7,1,1153
3,3,1388,7,1,1467
3,2,1389,7,1,1163
3,2,1390,7,1,1062
3,3,1391,7,1,1602
3,2,1392,7,1,1048
3,3,1393,7,1,1467
3,5,1394,7,1,943
3,2,1395,7,1,1227
3,4,1396,7,0,NA
3,3,1397,7,1,1237
3,5,1398,7,1,1206
3,3,1399,7,1,1263
3,5,1400,8,1,1583
3,2,1401,8,1,1124
3,2,1402,8,1,1225
3,4,1403,8,1,1473
3,1,1404,8,1,1207
3,4,1405,8,1,973
3,2,1406,8,1,1025
3,3,1407,8,1,1066
3,1,1408,8,1,1751
3,3,1409,8,1,774
3,5,1410,8,1,1179
3,1,1411,8,1,1105
3,2,1412,8,1,1233
3,5,1413,8,1,1151
3,2,1414,8,1,994
3,5,1415,8,1,1549
3,2,1416,8,1,1085
3,5,1417,8,1,1206
3,5,1418,8,1,1549
3,3,1419,8,1,1065
3,4,1420,8,1,1912
3,1,1421,8,1,786
3,4,1422,8,1,1778
3,3,1423,8,1,1325
3,5,1424,8,1,1203
3,4,1425,8,1,1912
3,3,1426,8,1,1443
3,4,1427,8,1,1406
3,3,1428,8,1,1514
3,5,1429,8,1,1145
3,2,1430,8,1,1276
3,2,1431,8,1,1062
3,4,1432,8,1,1028
3,1,1433,8,1,824
3,1,1434,8,1,976
3,5,1435,8,1,1309
3,1,1436,8,1,1183
3,3,1437,8,1,1066
3,4,1438,8,1,1100
3,4,1439,8,1,1066
3,5,1440,8,1,1323
3,5,1441,8,1,465
3,4,1442,8,1,1303
3,4,1443,8,1,1140
3,1,1444,8,1,1241
3,3,1445,8,1,1098
3,4,1446,8,1,1473
3,1,1447,8,1,964
3,5,1448,8,1,1180
3,2,1449,8,1,1047
3,4,1450,8,1,1406
3,1,1451,8,1,861
3,5,1452,8,1,1733
3,2,1453,8,1,1243
3,1,1454,8,1,941
3,1,1455,8,1,893
3,4,1456,8,1,1022
3,1,1457,8,1,893
3,3,1458,8,1,1263
3,5,1459,8,1,1382
3,3,1460,8,1,1385
3,2,1461,8,1,1403
3,3,1462,8,1,1290
3,2,1463,8,1,1140
3,5,1464,8,1,1063
3,1,1465,8,1,964
3,4,1466,8,1,1276
3,5,1467,8,1,1181
3,1,1468,8,1,1265
3,3,1469,8,1,1175
3,4,1470,8,1,1117
3,3,1471,8,1,2175
3,3,1472,8,1,1186
3,3,1473,8,1,2175
3,3,1474,8,1,1044
3,2,1475,8,1,929
3,5,1476,8,1,1182
3,5,1477,8,1,1323
3,2,1478,8,1,1284
3,5,1479,8,1,1623
3,2,1480,8,1,1366
3,4,1481,8,1,1926
3,4,1482,8,1,1962
3,3,1483,8,1,1563
3,1,1484,8,1,877
3,2,1485,8,1,1100
3,4,1486,8,1,1140
3,3,1487,8,1,1780
3,3,1488,8,1,1263
3,5,1489,8,1,1203
3,3,1490,8,1,1917
3,5,1491,8,1,1304
3,2,1492,8,1,1393
3,3,1493,8,1,1456
3,3,1494,8,1,1283
3,5,1495,8,1,1124
3,4,1496,8,1,2735
3,4,1497,8,1,1328
3,3,1498,8,1,1445
3,2,1499,8,1,1193
3,5,1500,8,1,784
3,3,1501,8,1,1698
3,5,1502,8,1,1285
3,1,1503,8,1,1362
3,1,1504,8,1,923
3,1,1505,8,1,1241
3,3,1506,8,1,1175
3,1,1507,8,1,836
3,4,1508,8,1,1406
3,1,1509,8,1,1334
3,4,1510,8,1,1694
3,1,1511,8,1,961
3,4,1512,8,1,823
3,4,1513,8,1,1671
3,4,1514,8,1,1344
3,1,1515,8,1,546
3,2,1516,8,1,1185
3,4,1517,8,1,1502
3,3,1518,8,1,1498
3,2,1519,8,1,1007
3,3,1520,8,1,1385
3,5,1521,8,1,1243
3,4,1522,8,1,1361
3,3,1523,8,1,1421
3,2,1524,8,1,1065
3,2,1525,8,1,1366
3,3,1526,8,1,1059
3,5,1527,8,1,1600
3,2,1528,8,1,1023
3,2,1529,8,1,1604
3,1,1530,8,1,947
3,4,1531,8,1,1344
3,5,1532,8,1,1093
3,5,1533,8,1,1733
3,1,1534,8,1,1108
3,4,1535,8,1,1778
3,3,1536,8,1,1311
3,1,1537,8,1,1029
3,5,1538,8,1,1281
3,5,1539,8,1,1217
3,2,1540,8,1,1074
3,1,1541,8,1,958
3,4,1542,8,1,1919
3,5,1543,8,1,1052
3,5,1544,8,1,1034
3,5,1545,8,1,1244
3,4,1546,8,1,923
3,2,1547,8,1,1115
3,3,1548,8,1,1013
3,1,1549,8,1,893
3,1,1550,8,1,1087
3,4,1551,8,1,1140
3,1,1552,8,1,836
3,4,1553,8,1,1425
3,2,1554,8,1,977
3,5,1555,8,1,1623
3,3,1556,8,1,1448
3,2,1557,8,1,1074
3,1,1558,8,1,824
3,3,1559,8,1,1098
3,5,1560,8,1,1309
3,1,1561,8,1,962
3,4,1562,8,1,1698
3,1,1563,8,1,1241
3,3,1564,8,1,1423
3,1,1565,8,1,1084
3,5,1566,8,1,2051
3,2,1567,8,1,1124
3,1,1568,8,1,1087
3,2,1569,8,1,1074
3,3,1570,8,1,1514
3,3,1571,8,1,1381
3,1,1572,8,1,921
3,4,1573,8,1,1095
3,3,1574,8,1,1448
3,3,1575,8,1,1445
3,5,1576,8,1,1752
3,4,1577,8,1,1095
3,4,1578,8,1,1562
3,4,1579,8,1,1524
3,5,1580,8,1,1093
3,5,1581,8,1,1306
3,1,1582,8,1,1079
3,1,1583,8,1,846
3,4,1584,8,1,943
3,2,1585,8,1,1065
3,2,1586,8,1,1025
3,1,1587,8,1,958
3,3,1588,8,1,1175
3,4,1589,8,1,1562
3,4,1590,8,1,1377
3,2,1591,8,1,1234
3,1,1592,8,1,836
3,4,1593,8,1,1671
3,5,1594,8,1,1233
3,3,1595,8,1,1758
3,4,1596,8,1,1283
3,3,1597,8,1,1373
3,5,1598,8,1,1583
3,2,1599,8,1,1529
3,3,1600,9,1,564
3,5,1601,9,1,1518
3,1,1602,9,1,1155
3,4,1603,9,1,1260
3,1,1604,9,1,953
3,1,1605,9,1,904
3,3,1606,9,1,1443
3,4,1607,9,1,1283
3,5,1608,9,1,1382
3,1,1609,9,1,1121
3,4,1610,9,1,1962
3,5,1611,9,1,1171
3,1,1612,9,1,1023
3,3,1613,9,1,1456
3,3,1614,9,1,1296
3,1,1615,9,1,1394
3,1,1616,9,1,1042
3,1,1617,9,1,962
3,1,1618,9,1,1274
3,4,1619,9,1,943
3,1,1620,9,1,1019
3,5,1621,9,1,2575
3,3,1622,9,1,1294
3,5,1623,9,1,1243
3,5,1624,9,1,1282
3,2,1625,9,1,918
3,4,1626,9,1,2142
3,4,1627,9,1,823
3,4,1628,9,1,1247
3,3,1629,9,1,1593
3,2,1630,9,1,2072
3,4,1631,9,1,1094
3,2,1632,9,1,925
3,1,1633,9,1,1274
3,1,1634,9,1,919
3,3,1635,9,1,1083
3,4,1636,9,0,NA
3,4,1637,9,1,2399
3,1,1638,9,1,946
3,4,1639,9,1,1264
3,5,1640,9,1,1559
3,5,1641,9,1,1855
3,2,1642,9,1,1100
3,4,1643,9,1,1502
3,2,1644,9,1,1439
3,3,1645,9,1,1059
3,4,1646,9,1,1779
3,2,1647,9,1,1144
3,4,1648,9,1,1059
3,5,1649,9,1,1151
3,5,1650,9,1,1616
3,1,1651,9,1,894
3,4,1652,9,1,1377
3,3,1653,9,1,1628
3,3,1654,9,1,1513
3,5,1655,9,1,1600
3,3,1656,9,1,1285
3,4,1657,9,1,1147
3,2,1658,9,1,1073
3,4,1659,9,1,1694
3,2,1660,9,1,1047
3,3,1661,9,1,1423
3,3,1662,9,1,1296
3,2,1663,9,1,1225
3,1,1664,9,1,786
3,4,1665,9,1,973
3,4,1666,9,1,1123
3,5,1667,9,1,1265
3,2,1668,9,1,925
3,1,1669,9,1,1064
3,2,1670,9,1,1232
3,1,1671,9,1,1183
3,3,1672,9,1,1263
3,3,1673,9,1,1323
3,2,1674,9,1,977
3,2,1675,9,1,1065
3,2,1676,9,1,1062
3,5,1677,9,1,1399
3,5,1678,9,1,1518
3,5,1679,9,1,1180
3,5,1680,9,1,784
3,3,1681,9,1,1602
3,1,1682,9,1,965
3,1,1683,9,1,919
3,5,1684,9,1,1327
3,5,1685,9,1,1063
3,3,1686,9,1,1025
3,3,1687,9,1,1473
3,3,1688,9,1,1385
3,3,1689,9,1,1243
3,5,1690,9,1,1281
3,2,1691,9,1,925
3,1,1692,9,1,1183
3,5,1693,9,1,1128
3,4,1694,9,1,2142
3,3,1695,9,1,1325
3,1,1696,9,1,1094
3,2,1697,9,1,1417
3,5,1698,9,1,1244
3,1,1699,9,1,1108
3,2,1700,9,1,987
3,4,1701,9,1,2128
3,3,1702,9,1,1065
3,1,1703,9,1,786
3,5,1704,9,1,1281
3,1,1705,9,1,1334
3,2,1706,9,1,1233
3,1,1707,9,1,1121
3,3,1708,9,1,1628
3,1,1709,9,1,946
3,4,1710,9,1,1205
3,5,1711,9,1,1124
3,4,1712,9,1,1361
3,2,1713,9,1,1529
3,4,1714,9,1,923
3,3,1715,9,1,1124
3,2,1716,9,1,779
3,1,1717,9,1,911
3,3,1718,9,1,1443
3,5,1719,9,1,784
3,2,1720,9,1,1366
3,4,1721,9,1,1926
3,3,1722,9,1,1446
3,3,1723,9,1,1443
3,3,1724,9,1,1564
3,4,1725,9,1,1206
3,2,1726,9,1,779
3,2,1727,9,1,1403
3,4,1728,9,1,1094
3,4,1729,9,1,1694
3,5,1730,9,1,1809
3,3,1731,9,1,1259
3,4,1732,9,1,1716
3,5,1733,9,1,1356
3,5,1734,9,1,1247
3,1,1735,9,1,926
3,2,1736,9,1,1381
3,4,1737,9,1,1059
3,2,1738,9,1,1358
3,3,1739,9,1,1513
3,5,1740,9,1,1559
3,2,1741,9,1,1181
3,3,1742,9,1,1263
3,1,1743,9,1,926
3,2,1744,9,1,1023
3,3,1745,9,1,1373
3,5,1746,9,1,1151
3,3,1747,9,1,1263
3,3,1748,9,1,1300
3,3,1749,9,1,1473
3,4,1750,9,1,1382
3,2,1751,9,1,1302
3,2,1752,9,1,908
3,4,1753,9,1,1100
3,1,1754,9,1,1108
3,2,1755,9,1,1417
3,2,1756,9,1,1259
3,2,1757,9,1,1678
3,1,1758,9,1,946
3,4,1759,9,1,1577
3,1,1760,9,1,1243
3,4,1761,9,1,1671
3,2,1762,9,1,1025
3,1,1763,9,1,948
3,5,1764,9,1,1243
3,4,1765,9,1,1698
3,4,1766,9,1,1716
3,1,1767,9,1,1121
3,1,1768,9,1,1066
3,2,1769,9,1,1280
3,5,1770,9,1,1093
3,1,1771,9,1,1023
3,4,1772,9,1,1279
3,4,1773,9,1,1779
3,1,1774,9,1,1105
3,2,1775,9,1,1387
3,5,1776,9,1,1124
3,3,1777,9,1,1263
3,4,1778,9,1,1243
3,4,1779,9,1,1350
3,5,1780,9,1,1100
3,1,1781,9,1,947
3,5,1782,9,1,924
3,1,1783,9,1,1079
3,1,1784,9,1,937
3,3,1785,9,1,1323
3,3,1786,9,1,1026
3,1,1787,9,1,1377
3,4,1788,9,1,1543
3,3,1789,9,1,1285
3,4,1790,9,1,1100
3,4,1791,9,1,1694
3,5,1792,9,1,1181
3,1,1793,9,1,948
3,4,1794,9,1,1620
3,4,1795,9,1,973
3,5,1796,9,1,1303
3,4,1797,9,1,823
3,4,1798,9,1,1328
3,1,1799,9,1,1201
3,5,1800,10,1,1733
3,4,1801,10,1,1524
3,2,1802,10,1,1284
3,3,1803,10,1,1044
3,4,1804,10,1,1912
3,5,1805,10,1,1242
3,2,1806,10,1,1467
3,5,1807,10,1,1243
3,2,1808,10,1,1302
3,1,1809,10,1,894
3,4,1810,10,1,1022
3,2,1811,10,1,1652
3,1,1812,10,1,926
3,3,1813,10,1,1159
3,3,1814,10,1,1243
3,4,1815,10,1,943
3,2,1816,10,1,1598
3,4,1817,10,1,1377
3,1,1818,10,1,903
3,2,1819,10,1,1144
3,2,1820,10,1,1481
3,2,1821,10,1,1704
3,1,1822,10,1,1237
3,3,1823,10,0,1513
3,5,1824,10,1,1809
3,4,1825,10,1,1243
3,5,1826,10,1,1623
3,5,1827,10,1,1181
3,4,1828,10,0,NA
3,4,1829,10,1,1377
3,1,1830,10,1,1543
3,4,1831,10,1,1180
3,4,1832,10,1,1108
3,4,1833,10,1,1276
3,4,1834,10,1,1264
3,2,1835,10,1,1065
3,3,1836,10,1,1489
3,3,1837,10,1,1311
3,5,1838,10,1,2575
3,3,1839,10,1,1448
3,4,1840,10,1,2163
3,1,1841,10,1,1241
3,3,1842,10,1,1634
3,3,1843,10,1,2073
3,4,1844,10,1,1203
3,3,1845,10,1,964
3,2,1846,10,1,977
3,3,1847,10,1,1263
3,2,1848,10,1,994
3,1,1849,10,1,1084
3,2,1850,10,1,1115
3,3,1851,10,1,1404
3,3,1852,10,1,1474
3,3,1853,10,1,1283
3,1,1854,10,1,999
3,4,1855,10,1,1684
3,4,1856,10,1,1205
3,1,1857,10,1,1394
3,3,1858,10,1,1404
3,1,1859,10,1,921
3,1,1860,10,1,962
3,1,1861,10,1,923
3,4,1862,10,1,1962
3,2,1863,10,1,1025
3,5,1864,10,1,1179
3,5,1865,10,1,1323
3,4,1866,10,1,2399
3,1,1867,10,1,911
3,5,1868,10,1,1206
3,4,1869,10,1,1912
3,1,1870,10,1,1241
3,5,1871,10,1,1752
3,2,1872,10,1,1047
3,2,1873,10,1,955
3,5,1874,10,1,1303
3,2,1875,10,1,994
3,2,1876,10,1,1358
3,2,1877,10,1,1073
3,5,1878,10,1,1616
3,4,1879,10,1,1128
3,2,1880,10,1,1598
3,4,1881,10,1,2399
3,5,1882,10,1,1203
3,2,1883,10,1,1023
3,1,1884,10,1,923
3,2,1885,10,1,1467
3,5,1886,10,1,1752
3,4,1887,10,1,1384
3,3,1888,10,1,1186
3,3,1889,10,1,1322
3,5,1890,10,1,1282
3,5,1891,10,1,1281
3,1,1892,10,1,1075
3,1,1893,10,1,546
3,1,1894,10,1,961
3,2,1895,10,1,1243
3,3,1896,10,1,1634
3,3,1897,10,1,1381
3,4,1898,10,1,1264
3,3,1899,10,1,1098
3,2,1900,10,1,1652
3,2,1901,10,1,1062
3,2,1902,10,1,1403
3,3,1903,10,1,1385
3,2,1904,10,1,1025
3,3,1905,10,1,1467
3,2,1906,10,1,1678
3,5,1907,10,1,1518
3,3,1908,10,1,1456
3,1,1909,10,1,999
3,5,1910,10,1,1151
3,1,1911,10,1,1105
3,1,1912,10,1,948
3,1,1913,10,1,1023
3,5,1914,10,1,1513
3,2,1915,10,1,1073
3,5,1916,10,1,1203
3,2,1917,10,1,1047
3,3,1918,10,1,1025
3,3,1919,10,1,1698
3,5,1920,10,1,1224
3,5,1921,10,1,1140
3,1,1922,10,1,1155
3,1,1923,10,1,974
3,4,1924,10,1,1100
3,3,1925,10,1,935
3,1,1926,10,1,893
3,1,1927,10,1,926
3,1,1928,10,1,1237
3,2,1929,10,1,1229
3,3,1930,10,1,1098
3,4,1931,10,1,1094
3,1,1932,10,1,980
3,3,1933,10,1,1481
3,4,1934,10,1,1396
3,4,1935,10,1,1103
3,4,1936,10,1,1524
3,2,1937,10,1,994
3,4,1938,10,1,1577
3,2,1939,10,1,1007
3,3,1940,10,1,1322
3,3,1941,10,1,1083
3,4,1942,10,1,1306
3,1,1943,10,1,1105
3,2,1944,10,1,977
3,4,1945,10,1,1507
3,1,1946,10,1,893
3,1,1947,10,1,1265
3,1,1948,10,1,921
3,4,1949,10,1,2735
3,2,1950,10,1,1181
3,5,1951,10,1,1513
3,3,1952,10,1,1259
3,5,1953,10,1,1179
3,3,1954,10,1,1149
3,3,1955,10,1,1628
3,4,1956,10,1,1350
3,4,1957,10,1,1306
3,5,1958,10,1,1182
3,2,1959,10,1,1379
3,5,1960,10,1,1128
3,3,1961,10,1,1362
3,4,1962,10,1,1671
3,1,1963,10,1,1183
3,2,1964,10,1,929
3,2,1965,10,1,1379
3,5,1966,10,1,1819
3,2,1967,10,1,1153
3,5,1968,10,1,1504
3,1,1969,10,1,943
3,4,1970,10,1,2142
3,5,1971,10,1,1303
3,3,1972,10,1,1498
3,3,1973,10,1,1137
3,4,1974,10,1,1919
3,2,1975,10,1,1085
3,3,1976,10,1,1224
3,3,1977,10,1,1325
3,3,1978,10,1,1385
3,2,1979,10,1,1008
3,1,1980,10,1,986
3,5,1981,10,1,1264
3,4,1982,10,1,1117
3,2,1983,10,1,1302
3,3,1984,10,1,1481
3,1,1985,10,1,911
3,1,1986,10,1,877
3,3,1987,10,1,1483
3,3,1988,10,1,1435
3,5,1989,10,1,1093
3,2,1990,10,1,1098
3,2,1991,10,1,1113
3,5,1992,10,1,1399
3,2,1993,10,1,1019
3,2,1994,10,1,925
3,4,1995,10,1,1653
3,1,1996,10,1,953
3,1,1997,10,1,904
3,4,1998,10,1,1405
3,3,1999,10,1,1474
3,5,2000,11,1,1752
4,5,1,1,1,1348
4,2,2,1,1,1200
4,5,3,1,1,1784
4,2,4,1,1,1132
4,1,5,1,1,1823
4,4,6,1,1,1500
4,3,7,1,1,1401
4,4,8,1,1,1971
4,3,9,1,1,1759
4,5,10,1,1,1786
4,4,11,1,1,1857
4,1,12,1,1,1646
4,5,13,1,1,1581
4,3,14,1,1,1879
4,5,15,1,1,1328
4,3,16,1,1,2234
4,2,17,1,1,1380
4,4,18,1,1,1706
4,3,19,1,1,1962
4,2,20,1,1,1506
4,5,21,1,1,1532
4,1,22,1,1,1698
4,5,23,1,1,1998
4,3,24,1,1,1733
4,1,25,1,1,1207
4,1,26,1,1,1280
4,5,27,1,1,1581
4,5,28,1,1,1646
4,1,29,1,1,1350
4,5,30,1,1,1543
4,1,31,1,1,1205
4,1,32,1,1,1641
4,3,33,1,1,1708
4,4,34,1,1,1383
4,2,35,1,1,1990
4,2,36,1,1,1528
4,4,37,1,1,1683
4,5,38,1,1,2223
4,1,39,1,1,1208
4,4,40,1,1,2323
4,3,41,1,1,1909
4,2,42,1,1,1562
4,4,43,1,1,1633
4,1,44,1,1,1267
4,3,45,1,1,2086
4,2,46,1,1,1475
4,4,47,1,1,2015
4,2,48,1,1,1573
4,4,49,1,1,1827
4,4,50,1,1,1664
4,2,51,1,1,1457
4,5,52,1,1,1912
4,5,53,1,1,1803
4,5,54,1,1,2014
4,4,55,1,1,101
4,2,56,1,1,1990
4,2,57,1,1,1806
4,3,58,1,1,2143
4,4,59,1,1,1867
4,2,60,1,1,1453
4,5,61,1,1,2021
4,1,62,1,1,1326
4,1,63,1,1,1208
4,4,64,1,1,1608
4,5,65,1,1,2226
4,4,66,1,1,1867
4,5,67,1,1,1969
4,1,68,1,1,1721
4,3,69,1,1,1931
4,2,70,1,1,1566
4,4,71,1,1,1683
4,4,72,1,1,101
4,1,73,1,1,1295
4,5,74,1,1,1637
4,5,75,1,1,1969
4,4,76,1,1,142
4,3,77,1,1,1620
4,5,78,1,1,2227
4,3,79,1,1,1652
4,1,80,1,1,1233
4,1,81,1,1,1725
4,2,82,1,1,1566
4,3,83,1,1,2120
4,2,84,1,1,1536
4,5,85,1,1,1349
4,4,86,1,1,2342
4,3,87,1,1,1291
4,3,88,1,1,1808
4,1,89,1,1,1233
4,2,90,1,1,122
4,2,91,1,1,1273
4,4,92,1,1,1579
4,5,93,1,0,NA
4,3,94,1,1,1652
4,1,95,1,1,1465
4,1,96,1,1,1495
4,4,97,1,1,1653
4,1,98,1,1,1070
4,4,99,1,1,1725
4,3,100,1,1,1529
4,2,101,1,1,1775
4,4,102,1,1,1374
4,4,103,1,1,1965
4,1,104,1,1,1205
4,1,105,1,1,1214
4,2,106,1,1,1668
4,2,107,1,1,2131
4,4,108,1,1,1887
4,2,109,1,1,1143
4,2,110,1,1,1869
4,1,111,1,1,1254
4,3,112,1,1,1553
4,5,113,1,1,1326
4,5,114,1,1,1789
4,4,115,1,1,1971
4,2,116,1,1,1132
4,4,117,1,1,1337
4,1,118,1,1,1408
4,4,119,1,1,2302
4,4,120,1,1,1867
4,3,121,1,1,1307
4,3,122,1,1,1733
4,2,123,1,1,1924
4,1,124,1,1,1348
4,3,125,1,1,1583
4,1,126,1,1,1364
4,4,127,1,1,1390
4,3,128,1,1,2009
4,4,129,1,1,1971
4,4,130,1,1,1675
4,2,131,1,1,1562
4,5,132,1,1,1662
4,4,133,1,1,2226
4,5,134,1,1,1348
4,5,135,1,1,1485
4,1,136,1,1,1513
4,2,137,1,1,1869
4,1,138,1,1,1348
4,1,139,1,1,1296
4,1,140,1,1,1399
4,2,141,1,1,2019
4,1,142,1,1,1295
4,2,143,1,1,1528
4,5,144,1,1,1969
4,4,145,1,1,2144
4,2,146,1,1,1407
4,4,147,1,1,1599
4,4,148,1,1,1599
4,4,149,1,1,1622
4,2,150,1,1,1453
4,4,151,1,1,1645
4,1,152,1,1,1227
4,5,153,1,1,1342
4,1,154,1,1,1823
4,2,155,1,1,1298
4,2,156,1,1,1924
4,4,157,1,1,2004
4,5,158,1,1,1654
4,4,159,1,1,1873
4,4,160,1,1,1646
4,1,161,1,1,2201
4,1,162,1,1,22
4,1,163,1,1,1254
4,3,164,1,1,1931
4,5,165,1,1,1914
4,4,166,1,1,1612
4,3,167,1,1,2009
4,1,168,1,1,1646
4,5,169,1,1,1487
4,3,170,1,1,1347
4,3,171,1,1,2065
4,1,172,1,1,1470
4,3,173,1,1,1700
4,3,174,1,1,2067
4,1,175,1,1,1214
4,5,176,1,0,NA
4,2,177,1,1,122
4,4,178,1,1,1403
4,3,179,1,1,1825
4,5,180,1,1,1783
4,2,181,1,1,1143
4,1,182,1,1,1399
4,1,183,1,1,1398
4,4,184,1,1,1857
4,1,185,1,1,1202
4,5,186,1,1,1241
4,3,187,1,1,2075
4,3,188,1,1,1308
4,3,189,1,1,1744
4,4,190,1,1,1484
4,3,191,1,1,2169
4,3,192,1,1,1753
4,1,193,1,0,NA
4,3,194,1,1,1553
4,4,195,1,1,1390
4,1,196,1,1,1641
4,3,197,1,1,1928
4,2,198,1,1,1384
4,4,199,1,0,NA
4,4,200,2,1,1403
4,1,201,2,1,1507
4,2,202,2,1,1764
4,4,203,2,1,1887
4,4,204,2,1,2204
4,2,205,2,1,1685
4,5,206,2,1,1665
4,4,207,2,1,1484
4,3,208,2,1,1700
4,1,209,2,1,1207
4,5,210,2,1,1382
4,4,211,2,1,1812
4,3,212,2,1,2302
4,2,213,2,0,NA
4,3,214,2,1,1680
4,2,215,2,1,1642
4,1,216,2,1,1364
4,2,217,2,1,1389
4,5,218,2,1,1314
4,2,219,2,1,1475
4,1,220,2,1,1234
4,2,221,2,1,1388
4,3,222,2,1,2065
4,5,223,2,1,1581
4,1,224,2,1,1368
4,1,225,2,1,1029
4,5,226,2,1,1784
4,2,227,2,1,1248
4,1,228,2,1,1205
4,4,229,2,1,1337
4,5,230,2,1,1203
4,3,231,2,1,1583
4,1,232,2,1,1227
4,3,233,2,1,2067
4,1,234,2,1,1401
4,1,235,2,1,1268
4,3,236,2,1,1821
4,5,237,2,1,1485
4,4,238,2,1,1873
4,2,239,2,1,1685
4,5,240,2,1,1786
4,5,241,2,1,2223
4,1,242,2,1,1267
4,5,243,2,1,1562
4,4,244,2,1,1374
4,5,245,2,1,1347
4,5,246,2,1,1820
4,4,247,2,1,1827
4,3,248,2,1,1825
4,2,249,2,1,1162
4,2,250,2,1,1388
4,2,251,2,1,1806
4,2,252,2,1,1143
4,3,253,2,1,1545
4,3,254,2,1,2243
4,5,255,2,1,1421
4,4,256,2,1,1645
4,5,257,2,1,1467
4,2,258,2,1,2019
4,4,259,2,1,1559
4,1,260,2,1,1507
4,1,261,2,1,1481
4,3,262,2,1,2169
4,5,263,2,1,1570
4,3,264,2,1,2067
4,1,265,2,1,1304
4,4,266,2,1,1612
4,4,267,2,1,1931
4,5,268,2,1,1532
4,4,269,2,1,2159
4,4,270,2,1,2079
4,3,271,2,1,569
4,1,272,2,1,1408
4,5,273,2,1,1943
4,3,274,2,1,1666
4,4,275,2,1,1501
4,1,276,2,1,1225
4,4,277,2,1,101
4,1,278,2,1,1507
4,1,279,2,1,1070
4,5,280,2,1,1342
4,5,281,2,1,1361
4,4,282,2,1,1403
4,2,283,2,1,1466
4,1,284,2,1,1470
4,4,285,2,1,2159
4,5,286,2,1,1557
4,2,287,2,1,1453
4,3,288,2,1,1968
4,4,289,2,1,1921
4,2,290,2,1,1775
4,4,291,2,1,1675
4,1,292,2,1,1436
4,5,293,2,1,1682
4,5,294,2,1,1426
4,2,295,2,1,1924
4,5,296,2,1,1326
4,4,297,2,1,1446
4,2,298,2,1,1551
4,5,299,2,1,1762
4,2,300,2,1,2218
4,1,301,2,1,1295
4,3,302,2,1,1555
4,3,303,2,1,1553
4,1,304,2,1,1214
4,1,305,2,1,1364
4,5,306,2,1,1860
4,5,307,2,1,1748
4,3,308,2,1,1508
4,5,309,2,1,2157
4,1,310,2,1,1296
4,1,311,2,1,1254
4,2,312,2,1,1744
4,4,313,2,1,1471
4,2,314,2,1,1457
4,5,315,2,1,1421
4,5,316,2,1,1530
4,4,317,2,1,1986
4,1,318,2,1,1348
4,2,319,2,1,2302
4,5,320,2,1,1625
4,5,321,2,1,1565
4,5,322,2,1,1620
4,3,323,2,1,1744
4,5,324,2,1,1662
4,4,325,2,1,1896
4,1,326,2,1,1233
4,2,327,2,1,1235
4,2,328,2,1,1779
4,2,329,2,1,1387
4,2,330,2,1,1387
4,3,331,2,1,2031
4,3,332,2,1,1680
4,4,333,2,1,1873
4,1,334,2,1,1396
4,1,335,2,1,1401
4,2,336,2,1,1668
4,1,337,2,1,1294
4,2,338,2,1,1389
4,2,339,2,1,2053
4,2,340,2,1,1668
4,1,341,2,1,1263
4,5,342,2,1,1914
4,4,343,2,1,1971
4,1,344,2,1,1676
4,2,345,2,1,1326
4,5,346,2,0,NA
4,1,347,2,1,1846
4,3,348,2,1,1363
4,1,349,2,1,1470
4,2,350,2,1,1261
4,1,351,2,1,1295
4,2,352,2,1,1453
4,5,353,2,1,2157
4,2,354,2,1,1298
4,4,355,2,1,1612
4,5,356,2,1,2253
4,4,357,2,1,1843
4,5,358,2,1,1762
4,1,359,2,1,1676
4,5,360,2,1,1326
4,3,361,2,1,1545
4,4,362,2,1,2055
4,3,363,2,1,1494
4,2,364,2,1,1384
4,2,365,2,1,1143
4,1,366,2,1,1221
4,5,367,2,1,1965
4,5,368,2,1,773
4,2,369,2,1,1501
4,3,370,2,1,2086
4,1,371,2,1,1357
4,4,372,2,1,1408
4,1,373,2,1,1486
4,4,374,2,1,1546
4,3,375,2,1,1787
4,2,376,2,1,1466
4,3,377,2,1,1766
4,5,378,2,1,1426
4,1,379,2,1,1341
4,3,380,2,1,2302
4,3,381,2,1,2084
4,1,382,2,1,1486
4,3,383,2,0,NA
4,1,384,2,1,1906
4,3,385,2,1,1766
4,2,386,2,1,1162
4,1,387,2,1,1676
4,5,388,2,1,1625
4,5,389,2,1,1637
4,1,390,2,1,1205
4,4,391,2,1,2348
4,5,392,2,1,1784
4,3,393,2,1,1363
4,4,394,2,1,1559
4,4,395,2,1,2164
4,2,396,2,1,1743
4,4,397,2,1,2159
4,2,398,2,1,1965
4,1,399,2,1,1205
4,5,400,3,1,1421
4,2,401,3,1,2222
4,2,402,3,1,1942
4,3,403,3,1,1766
4,3,404,3,1,1970
4,5,405,3,1,1552
4,3,406,3,1,1821
4,5,407,3,1,1292
4,5,408,3,1,1637
4,3,409,3,1,1513
4,1,410,3,1,2201
4,5,411,3,1,1625
4,3,412,3,1,1545
4,5,413,3,1,1383
4,2,414,3,1,1874
4,1,415,3,1,1396
4,1,416,3,1,1202
4,4,417,3,1,2226
4,5,418,3,1,1620
4,4,419,3,1,1646
4,2,420,3,1,1575
4,4,421,3,1,1408
4,3,422,3,1,1733
4,3,423,3,1,1733
4,4,424,3,1,2022
4,1,425,3,1,1302
4,1,426,3,1,1304
4,4,427,3,1,1884
4,2,428,3,1,2218
4,5,429,3,1,1497
4,2,430,3,1,1685
4,2,431,3,1,1384
4,5,432,3,1,1314
4,1,433,3,1,1380
4,2,434,3,1,2053
4,1,435,3,1,1260
4,1,436,3,1,1205
4,5,437,3,1,2021
4,2,438,3,1,1380
4,4,439,3,1,1806
4,2,440,3,1,1326
4,3,441,3,1,2209
4,2,442,3,1,1668
4,2,443,3,1,1387
4,3,444,3,1,2119
4,1,445,3,1,1784
4,1,446,3,1,1225
4,1,447,3,1,1234
4,1,448,3,1,1268
4,5,449,3,1,1292
4,5,450,3,1,1665
4,4,451,3,1,1664
4,2,452,3,1,1823
4,2,453,3,1,1444
4,4,454,3,1,2160
4,2,455,3,1,1248
4,1,456,3,1,1357
4,4,457,3,1,1921
4,4,458,3,1,1665
4,4,459,3,1,1446
4,5,460,3,1,1850
4,1,461,3,1,1350
4,5,462,3,1,1879
4,1,463,3,1,1581
4,3,464,3,1,1946
4,2,465,3,1,1298
4,5,466,3,1,1349
4,4,467,3,1,1599
4,4,468,3,1,1561
4,5,469,3,1,1383
4,3,470,3,1,2075
4,1,471,3,1,1698
4,1,472,3,1,1380
4,2,473,3,1,1686
4,4,474,3,1,2348
4,2,475,3,1,1325
4,4,476,3,1,1546
4,2,477,3,1,1979
4,3,478,3,1,1583
4,4,479,3,1,1561
4,2,480,3,1,1387
4,2,481,3,1,1585
4,2,482,3,1,1682
4,4,483,3,1,2342
4,3,484,3,1,1744
4,5,485,3,1,2014
4,1,486,3,1,1487
4,1,487,3,1,1267
4,2,488,3,1,1421
4,5,489,3,1,1570
4,5,490,3,1,1527
4,4,491,3,1,1523
4,5,492,3,1,1361
4,2,493,3,1,1143
4,1,494,3,1,1487
4,1,495,3,1,1725
4,3,496,3,1,1808
4,5,497,3,1,1486
4,5,498,3,1,1820
4,3,499,3,1,1338
4,3,500,3,1,1524
4,5,501,3,1,2014
4,3,502,3,1,1308
4,3,503,3,1,1823
4,4,504,3,1,2160
4,5,505,3,1,1646
4,3,506,3,1,569
4,2,507,3,1,1388
4,1,508,3,1,1304
4,5,509,3,1,1565
4,2,510,3,1,1919
4,4,511,3,1,1599
4,1,512,3,1,1146
4,4,513,3,1,1638
4,2,514,3,1,1143
4,3,515,3,1,2172
4,4,516,3,1,1390
4,2,517,3,1,1575
4,3,518,3,1,2143
4,5,519,3,1,1558
4,3,520,3,1,1753
4,1,521,3,1,1906
4,2,522,3,1,1764
4,1,523,3,1,1495
4,5,524,3,1,2223
4,5,525,3,1,1486
4,5,526,3,1,1486
4,2,527,3,1,1501
4,4,528,3,1,1622
4,3,529,3,1,1680
4,2,530,3,1,1235
4,1,531,3,1,1676
4,3,532,3,1,1338
4,4,533,3,1,1639
4,2,534,3,1,1630
4,5,535,3,1,1382
4,5,536,3,1,2226
4,4,537,3,1,1986
4,3,538,3,1,1291
4,5,539,3,1,1326
4,2,540,3,1,1584
4,3,541,3,1,1575
4,1,542,3,1,1721
4,3,543,3,1,1946
4,1,544,3,1,1029
4,5,545,3,1,1850
4,3,546,3,1,1555
4,1,547,3,1,1029
4,2,548,3,1,2222
4,1,549,3,1,1221
4,2,550,3,1,1384
4,1,551,3,1,1357
4,3,552,3,1,1821
4,4,553,3,1,1638
4,4,554,3,1,1706
4,2,555,3,1,1390
4,4,556,3,1,1579
4,2,557,3,1,2218
4,2,558,3,1,1325
4,2,559,3,1,1686
4,3,560,3,1,2045
4,4,561,3,1,1683
4,1,562,3,1,2201
4,1,563,3,1,1260
4,3,564,3,1,1529
4,4,565,3,1,1884
4,4,566,3,1,1599
4,4,567,3,1,2342
4,5,568,3,1,1347
4,1,569,3,1,1355
4,5,570,3,1,1912
4,5,571,3,1,1467
4,1,572,3,1,1646
4,5,573,3,1,1158
4,3,574,3,1,1823
4,5,575,3,1,1486
4,1,576,3,0,NA
4,5,577,3,1,1803
4,3,578,3,1,1708
4,3,579,3,1,1505
4,5,580,3,1,1383
4,2,581,3,1,1384
4,5,582,3,1,1562
4,5,583,3,1,1543
4,1,584,3,1,1126
4,2,585,3,1,2020
4,2,586,3,1,1723
4,5,587,3,1,1421
4,3,588,3,1,1730
4,4,589,3,1,1653
4,2,590,3,1,1942
4,1,591,3,1,1581
4,2,592,3,1,2020
4,2,593,3,1,1528
4,4,594,3,1,1653
4,5,595,3,0,NA
4,4,596,3,1,1638
4,2,597,3,1,1536
4,5,598,3,1,2253
4,1,599,3,1,1465
4,1,600,4,1,1239
4,3,601,4,1,1821
4,5,602,4,1,1648
4,3,603,4,1,1909
4,4,604,4,1,1399
4,4,605,4,1,1843
4,5,606,4,1,1786
4,4,607,4,1,1484
4,2,608,4,1,1874
4,4,609,4,1,1665
4,5,610,4,1,1850
4,3,611,4,1,1508
4,3,612,4,1,1545
4,4,613,4,1,2159
4,5,614,4,1,2227
4,1,615,4,1,1721
4,3,616,4,1,1962
4,1,617,4,1,1263
4,2,618,4,1,1407
4,4,619,4,1,1606
4,1,620,4,1,1402
4,5,621,4,1,1348
4,3,622,4,1,2120
4,2,623,4,1,2053
4,4,624,4,1,1921
4,1,625,4,1,1202
4,5,626,4,1,1912
4,2,627,4,1,1444
4,4,628,4,1,1646
4,2,629,4,1,1775
4,4,630,4,1,1896
4,1,631,4,1,1401
4,4,632,4,1,1606
4,3,633,4,1,2031
4,1,634,4,1,1239
4,3,635,4,1,1347
4,5,636,4,1,1943
4,3,637,4,1,1680
4,1,638,4,1,1205
4,4,639,4,1,2055
4,1,640,4,1,1214
4,5,641,4,1,1565
4,4,642,4,1,1812
4,3,643,4,1,2234
4,2,644,4,1,1686
4,3,645,4,1,2031
4,5,646,4,1,1361
4,2,647,4,1,191
4,3,648,4,1,2209
4,1,649,4,1,1350
4,3,650,4,1,1931
4,5,651,4,1,1803
4,2,652,4,1,191
4,1,653,4,1,1321
4,1,654,4,1,1196
4,3,655,4,1,1513
4,3,656,4,1,1386
4,5,657,4,1,2021
4,3,658,4,1,1529
4,1,659,4,1,1196
4,1,660,4,1,1126
4,5,661,4,1,1648
4,4,662,4,1,1368
4,2,663,4,1,2218
4,2,664,4,1,1298
4,4,665,4,1,1561
4,1,666,4,1,1507
4,3,667,4,1,1526
4,3,668,4,1,1700
4,3,669,4,1,2172
4,2,670,4,1,1585
4,3,671,4,1,1494
4,1,672,4,1,1846
4,2,673,4,0,NA
4,1,674,4,1,1239
4,2,675,4,1,1585
4,1,676,4,1,1070
4,3,677,4,1,1410
4,1,678,4,1,1289
4,1,679,4,1,1093
4,3,680,4,1,2172
4,4,681,4,1,2302
4,1,682,4,1,1201
4,3,683,4,1,1639
4,2,684,4,1,1705
4,4,685,4,1,2079
4,2,686,4,1,1248
4,3,687,4,1,2031
4,5,688,4,1,1943
4,5,689,4,1,1497
4,1,690,4,1,1233
4,4,691,4,1,1523
4,1,692,4,1,1436
4,5,693,4,1,1748
4,5,694,4,1,1860
4,1,695,4,1,1784
4,3,696,4,1,1730
4,3,697,4,1,1970
4,3,698,4,1,2120
4,1,699,4,1,1402
4,1,700,4,1,1225
4,1,701,4,1,1399
4,4,702,4,1,1606
4,5,703,4,1,1762
4,3,704,4,1,2084
4,4,705,4,1,1931
4,3,706,4,1,1383
4,4,707,4,1,1500
4,1,708,4,1,1093
4,1,709,4,1,1784
4,2,710,4,1,2113
4,2,711,4,1,1869
4,1,712,4,1,1396
4,2,713,4,0,NA
4,2,714,4,1,1744
4,2,715,4,1,1501
4,5,716,4,1,1436
4,3,717,4,0,NA
4,2,718,4,1,2020
4,5,719,4,1,1497
4,3,720,4,1,1308
4,1,721,4,1,1325
4,1,722,4,1,1507
4,1,723,4,1,1227
4,4,724,4,1,1986
4,1,725,4,1,1721
4,3,726,4,0,NA
4,1,727,4,1,1823
4,1,728,4,1,1584
4,1,729,4,1,1436
4,2,730,4,1,1475
4,5,731,4,1,1348
4,3,732,4,1,1363
4,5,733,4,1,1552
4,5,734,4,1,773
4,1,735,4,1,1355
4,1,736,4,1,1666
4,4,737,4,1,1921
4,1,738,4,1,1325
4,1,739,4,1,1302
4,5,740,4,1,1382
4,1,741,4,1,1315
4,3,742,4,1,1744
4,4,743,4,1,2159
4,5,744,4,1,1687
4,1,745,4,1,1301
4,1,746,4,1,1321
4,5,747,4,1,2226
4,1,748,4,1,1260
4,4,749,4,1,2226
4,2,750,4,1,1399
4,4,751,4,1,1633
4,5,752,4,1,1558
4,1,753,4,1,1402
4,2,754,4,1,1630
4,1,755,4,1,1225
4,4,756,4,1,1665
4,3,757,4,1,2209
4,3,758,4,1,1308
4,1,759,4,1,1584
4,3,760,4,1,1946
4,4,761,4,1,1733
4,4,762,4,1,1771
4,4,763,4,1,1857
4,5,764,4,1,1532
4,3,765,4,1,1962
4,2,766,4,1,1457
4,3,767,4,1,1555
4,3,768,4,1,2075
4,2,769,4,1,1575
4,2,770,4,1,191
4,5,771,4,1,1382
4,2,772,4,1,2053
4,3,773,4,1,1338
4,5,774,4,1,2223
4,2,775,4,1,1575
4,4,776,4,1,1645
4,3,777,4,1,1410
4,5,778,4,1,1203
4,3,779,4,1,1700
4,5,780,4,1,1557
4,2,781,4,1,1806
4,2,782,4,1,1743
4,5,783,4,1,1914
4,3,784,4,1,1526
4,5,785,4,1,2227
4,4,786,4,1,1622
4,5,787,4,1,2101
4,1,788,4,1,1302
4,2,789,4,1,1501
4,5,790,4,1,1364
4,1,791,4,1,1325
4,3,792,4,1,1386
4,2,793,4,1,1682
4,1,794,4,1,1196
4,2,795,4,1,1990
4,2,796,4,1,1200
4,1,797,4,1,1263
4,3,798,4,1,1308
4,1,799,4,1,1227
4,2,800,5,1,1506
4,2,801,5,1,1686
4,2,802,5,1,1630
4,1,803,5,1,1341
4,1,804,5,1,1146
4,4,805,5,1,2143
4,3,806,5,1,1863
4,4,807,5,1,2055
4,3,808,5,1,1823
4,3,809,5,1,1823
4,3,810,5,1,1825
4,1,811,5,1,1341
4,2,812,5,1,1874
4,5,813,5,1,1943
4,2,814,5,1,1723
4,5,815,5,1,1558
4,2,816,5,1,1384
4,3,817,5,1,1410
4,3,818,5,1,1307
4,5,819,5,1,1557
4,4,820,5,1,2323
4,3,821,5,1,1931
4,3,822,5,1,1502
4,3,823,5,1,1575
4,4,824,5,1,1633
4,3,825,5,1,1970
4,2,826,5,1,1453
4,3,827,5,1,1823
4,4,828,5,1,1887
4,3,829,5,1,2119
4,5,830,5,1,1530
4,5,831,5,1,1532
4,3,832,5,1,1928
4,3,833,5,1,2009
4,2,834,5,1,2302
4,3,835,5,1,1575
4,1,836,5,1,1513
4,4,837,5,1,2004
4,5,838,5,1,1654
4,4,839,5,1,1399
4,4,840,5,1,1599
4,3,841,5,1,1730
4,5,842,5,0,NA
4,2,843,5,1,1584
4,4,844,5,1,1806
4,2,845,5,1,1162
4,1,846,5,1,1207
4,5,847,5,1,1998
4,5,848,5,1,1349
4,3,849,5,1,1386
4,3,850,5,1,1680
4,1,851,5,1,1495
4,2,852,5,1,1533
4,3,853,5,1,1824
4,3,854,5,1,1733
4,4,855,5,1,1873
4,4,856,5,1,1403
4,5,857,5,1,2227
4,4,858,5,1,1579
4,3,859,5,1,1363
4,3,860,5,1,1652
4,3,861,5,1,1620
4,1,862,5,1,1355
4,1,863,5,1,1263
4,5,864,5,1,1879
4,1,865,5,1,1268
4,3,866,5,1,1863
4,1,867,5,1,1294
4,2,868,5,1,1536
4,2,869,5,1,2020
4,4,870,5,1,1374
4,1,871,5,1,1239
4,2,872,5,1,1743
4,3,873,5,1,1909
4,4,874,5,1,2015
4,1,875,5,1,1280
4,3,876,5,1,1700
4,2,877,5,1,1501
4,5,878,5,1,1682
4,2,879,5,1,1444
4,3,880,5,1,1502
4,2,881,5,1,1919
4,2,882,5,1,1533
4,1,883,5,1,1348
4,5,884,5,1,1965
4,5,885,5,1,1436
4,3,886,5,1,1771
4,1,887,5,1,1355
4,2,888,5,1,1384
4,4,889,5,1,2144
4,4,890,5,1,1745
4,3,891,5,1,1553
4,5,892,5,1,1998
4,1,893,5,1,1341
4,5,894,5,1,1879
4,3,895,5,1,2243
4,4,896,5,1,1867
4,5,897,5,1,1639
4,5,898,5,1,1485
4,4,899,5,1,101
4,3,900,5,1,1931
4,3,901,5,1,1708
4,4,902,5,1,1579
4,4,903,5,1,2022
4,5,904,5,1,1328
4,3,905,5,1,2065
4,5,906,5,1,1326
4,4,907,5,1,1465
4,4,908,5,1,1827
4,5,909,5,1,1436
4,4,910,5,1,1471
4,5,911,5,1,773
4,1,912,5,1,1486
4,3,913,5,1,1338
4,3,914,5,1,1555
4,5,915,5,1,1850
4,5,916,5,1,1762
4,4,917,5,1,2159
4,1,918,5,1,1321
4,5,919,5,1,1558
4,2,920,5,1,1685
4,4,921,5,1,2342
4,5,922,5,1,773
4,4,923,5,1,1686
4,3,924,5,1,1575
4,5,925,5,1,1748
4,2,926,5,1,1421
4,3,927,5,1,2169
4,3,928,5,1,1575
4,4,929,5,1,1931
4,2,930,5,0,NA
4,2,931,5,1,1261
4,4,932,5,1,2160
4,3,933,5,1,1879
4,4,934,5,1,1501
4,5,935,5,0,NA
4,2,936,5,1,1132
4,5,937,5,1,1347
4,1,938,5,1,1315
4,4,939,5,1,1383
4,5,940,5,1,1665
4,5,941,5,1,1485
4,5,942,5,1,1654
4,1,943,5,1,1205
4,2,944,5,1,1965
4,1,945,5,1,1326
4,4,946,5,1,2022
4,3,947,5,1,2120
4,2,948,5,1,1389
4,3,949,5,1,1513
4,1,950,5,1,1784
4,5,951,5,1,1342
4,3,952,5,1,1666
4,1,953,5,1,1207
4,3,954,5,1,1666
4,4,955,5,1,2204
4,2,956,5,1,1823
4,2,957,5,1,1575
4,4,958,5,1,1733
4,2,959,5,1,1781
4,4,960,5,1,1608
4,2,961,5,1,1421
4,5,962,5,1,1349
4,5,963,5,1,1203
4,1,964,5,1,1436
4,2,965,5,1,1573
4,2,966,5,1,1501
4,3,967,5,1,1516
4,5,968,5,1,1487
4,1,969,5,1,1906
4,1,970,5,1,1294
4,5,971,5,1,1328
4,2,972,5,1,1779
4,5,973,5,1,1873
4,1,974,5,1,1296
4,2,975,5,1,1743
4,1,976,5,1,1357
4,5,977,5,1,1965
4,2,978,5,1,1399
4,1,979,5,1,1321
4,2,980,5,1,1942
4,3,981,5,1,1759
4,5,982,5,1,1562
4,5,983,5,1,2101
4,2,984,5,1,1990
4,1,985,5,1,1380
4,5,986,5,1,1426
4,3,987,5,0,NA
4,3,988,5,1,1730
4,1,989,5,1,1326
4,5,990,5,1,1820
4,3,991,5,1,1555
4,4,992,5,1,1932
4,5,993,5,1,1648
4,1,994,5,1,1380
4,1,995,5,1,1221
4,3,996,5,1,2067
4,3,997,5,1,1347
4,2,998,5,1,1407
4,2,999,5,1,2131
4,2,1000,6,1,1399
4,3,1001,6,1,1879
4,5,1002,6,1,1965
4,5,1003,6,1,1562
4,1,1004,6,1,1234
4,4,1005,6,1,1686
4,5,1006,6,1,2253
4,4,1007,6,1,1639
4,1,1008,6,1,1341
4,1,1009,6,1,1646
4,3,1010,6,1,1401
4,5,1011,6,1,2021
4,4,1012,6,1,1812
4,2,1013,6,1,1390
4,1,1014,6,1,1666
4,2,1015,6,1,1200
4,4,1016,6,1,2348
4,3,1017,6,1,1444
4,1,1018,6,1,1289
4,5,1019,6,1,2101
4,1,1020,6,1,1495
4,1,1021,6,1,1581
4,4,1022,6,1,1843
4,5,1023,6,1,2223
4,2,1024,6,1,1744
4,4,1025,6,1,1673
4,3,1026,6,1,1733
4,5,1027,6,1,1557
4,3,1028,6,1,1508
4,3,1029,6,1,2075
4,4,1030,6,1,1965
4,4,1031,6,1,2302
4,5,1032,6,1,1639
4,4,1033,6,1,1686
4,5,1034,6,1,1158
4,2,1035,6,1,1924
4,4,1036,6,1,1337
4,4,1037,6,1,1638
4,4,1038,6,1,1546
4,3,1039,6,1,2045
4,5,1040,6,1,1784
4,3,1041,6,0,NA
4,5,1042,6,1,2157
4,3,1043,6,1,2031
4,4,1044,6,1,1639
4,1,1045,6,1,1225
4,5,1046,6,1,1527
4,4,1047,6,1,1471
4,5,1048,6,1,2226
4,2,1049,6,1,1384
4,1,1050,6,1,1698
4,1,1051,6,1,1487
4,5,1052,6,1,1820
4,3,1053,6,1,1639
4,5,1054,6,1,1158
4,5,1055,6,1,2253
4,2,1056,6,1,2005
4,5,1057,6,0,NA
4,1,1058,6,1,1906
4,3,1059,6,1,1962
4,3,1060,6,1,1513
4,4,1061,6,1,1501
4,4,1062,6,1,2144
4,1,1063,6,1,1646
4,2,1064,6,1,1865
4,4,1065,6,1,1857
4,5,1066,6,1,2353
4,1,1067,6,1,1280
4,3,1068,6,1,2209
4,3,1069,6,1,1946
4,1,1070,6,1,1214
4,3,1071,6,1,1787
4,1,1072,6,1,1301
4,4,1073,6,1,2302
4,2,1074,6,1,1444
4,4,1075,6,1,1523
4,4,1076,6,1,1383
4,1,1077,6,1,1846
4,5,1078,6,1,1485
4,4,1079,6,1,1932
4,1,1080,6,1,1201
4,5,1081,6,1,1558
4,2,1082,6,1,1965
4,2,1083,6,1,1965
4,2,1084,6,1,1573
4,1,1085,6,1,1348
4,3,1086,6,0,NA
4,3,1087,6,1,1575
4,5,1088,6,1,1487
4,4,1089,6,1,1608
4,1,1090,6,1,1481
4,5,1091,6,1,1873
4,1,1092,6,1,1666
4,2,1093,6,1,1248
4,1,1094,6,1,1304
4,2,1095,6,1,1536
4,5,1096,6,1,1860
4,5,1097,6,0,NA
4,2,1098,6,1,1132
4,5,1099,6,1,1762
4,1,1100,6,1,1301
4,1,1101,6,1,1294
4,4,1102,6,1,2159
4,5,1103,6,1,1682
4,1,1104,6,1,1784
4,3,1105,6,1,2009
4,1,1106,6,1,1368
4,3,1107,6,1,1365
4,4,1108,6,1,2160
4,3,1109,6,1,2084
4,1,1110,6,1,1906
4,5,1111,6,1,1241
4,4,1112,6,1,1599
4,4,1113,6,1,1812
4,5,1114,6,1,1421
4,5,1115,6,1,1543
4,5,1116,6,1,2157
4,4,1117,6,1,2226
4,4,1118,6,1,1827
4,5,1119,6,1,1342
4,2,1120,6,1,1562
4,5,1121,6,1,1328
4,2,1122,6,1,1261
4,2,1123,6,1,1501
4,2,1124,6,1,1326
4,2,1125,6,1,1384
4,2,1126,6,1,2302
4,5,1127,6,1,1581
4,3,1128,6,1,1524
4,3,1129,6,1,1879
4,4,1130,6,1,1622
4,1,1131,6,1,1267
4,4,1132,6,1,2143
4,5,1133,6,1,1581
4,4,1134,6,1,2204
4,3,1135,6,1,2065
4,5,1136,6,1,1783
4,4,1137,6,1,1500
4,2,1138,6,1,1779
4,2,1139,6,1,1764
4,2,1140,6,1,1407
4,3,1141,6,1,1824
4,2,1142,6,1,1642
4,1,1143,6,1,1481
4,4,1144,6,1,1725
4,1,1145,6,1,1201
4,1,1146,6,1,1146
4,1,1147,6,1,1315
4,4,1148,6,1,1887
4,5,1149,6,1,1784
4,1,1150,6,1,1436
4,2,1151,6,1,1823
4,1,1152,6,1,1093
4,1,1153,6,1,1584
4,5,1154,6,1,1314
4,4,1155,6,1,1465
4,4,1156,6,1,101
4,5,1157,6,1,1383
4,3,1158,6,1,1553
4,3,1159,6,1,2075
4,4,1160,6,1,1733
4,4,1161,6,1,1675
4,2,1162,6,1,2019
4,1,1163,6,1,1325
4,3,1164,6,1,1730
4,2,1165,6,1,1562
4,5,1166,6,1,2226
4,3,1167,6,1,2243
4,2,1168,6,1,1744
4,5,1169,6,1,1682
4,3,1170,6,1,1620
4,4,1171,6,1,1653
4,4,1172,6,1,1622
4,4,1173,6,1,1399
4,1,1174,6,1,1227
4,1,1175,6,1,1486
4,5,1176,6,1,1662
4,4,1177,6,1,1403
4,4,1178,6,1,2022
4,2,1179,6,1,1566
4,3,1180,6,1,2169
4,5,1181,6,1,1998
4,3,1182,6,1,2302
4,5,1183,6,1,1639
4,3,1184,6,1,2234
4,3,1185,6,1,1516
4,2,1186,6,1,1380
4,1,1187,6,1,1205
4,2,1188,6,1,2019
4,2,1189,6,1,1942
4,4,1190,6,1,1725
4,2,1191,6,1,2113
4,4,1192,6,1,1653
4,1,1193,6,1,1513
4,5,1194,6,1,2353
4,4,1195,6,1,1664
4,3,1196,6,1,1666
4,3,1197,6,0,NA
4,3,1198,6,1,1526
4,4,1199,6,1,1337
4,4,1200,7,1,2015
4,4,1201,7,1,1686
4,4,1202,7,1,1446
4,5,1203,7,1,1748
4,1,1204,7,1,1275
4,4,1205,7,1,2079
4,3,1206,7,1,569
4,3,1207,7,1,1524
4,4,1208,7,1,1368
4,4,1209,7,1,2004
4,4,1210,7,1,2204
4,1,1211,7,1,1260
4,2,1212,7,1,1407
4,2,1213,7,1,1235
4,3,1214,7,1,2119
4,5,1215,7,1,1532
4,1,1216,7,1,1268
4,4,1217,7,1,2159
4,1,1218,7,1,1399
4,1,1219,7,1,2201
4,5,1220,7,1,1912
4,5,1221,7,1,773
4,5,1222,7,1,1314
4,4,1223,7,1,1368
4,3,1224,7,1,2086
4,5,1225,7,1,1552
4,3,1226,7,1,1365
4,5,1227,7,1,1570
4,2,1228,7,1,1919
4,1,1229,7,1,1368
4,1,1230,7,1,1487
4,4,1231,7,1,1606
4,5,1232,7,1,1620
4,4,1233,7,1,1673
4,1,1234,7,1,1725
4,5,1235,7,1,1364
4,5,1236,7,1,1328
4,5,1237,7,1,1965
4,2,1238,7,1,1501
4,4,1239,7,1,1579
4,2,1240,7,1,1705
4,5,1241,7,1,1543
4,3,1242,7,1,2234
4,3,1243,7,1,1555
4,3,1244,7,1,1733
4,5,1245,7,1,1654
4,1,1246,7,1,1357
4,1,1247,7,1,1296
4,5,1248,7,1,1783
4,5,1249,7,1,1786
4,2,1250,7,1,2113
4,5,1251,7,1,1762
4,5,1252,7,1,1654
4,5,1253,7,1,1203
4,4,1254,7,1,1599
4,5,1255,7,1,1158
4,1,1256,7,1,1725
4,5,1257,7,1,1620
4,3,1258,7,1,1759
4,3,1259,7,1,2209
4,5,1260,7,1,1527
4,1,1261,7,1,1350
4,2,1262,7,1,1924
4,5,1263,7,1,2014
4,1,1264,7,1,1481
4,4,1265,7,1,142
4,2,1266,7,1,1407
4,2,1267,7,1,1390
4,1,1268,7,1,1325
4,5,1269,7,1,1543
4,3,1270,7,1,2086
4,1,1271,7,1,1465
4,5,1272,7,1,1625
4,1,1273,7,1,1202
4,4,1274,7,1,1608
4,2,1275,7,1,1235
4,1,1276,7,1,1666
4,2,1277,7,1,1261
4,3,1278,7,1,1968
4,4,1279,7,1,1446
4,2,1280,7,1,1682
4,1,1281,7,0,NA
4,4,1282,7,1,1465
4,4,1283,7,1,1986
4,4,1284,7,1,1399
4,4,1285,7,1,1873
4,2,1286,7,1,1399
4,1,1287,7,1,1341
4,2,1288,7,1,1326
4,1,1289,7,1,1275
4,1,1290,7,0,NA
4,5,1291,7,1,1637
4,5,1292,7,1,2227
4,3,1293,7,1,1824
4,2,1294,7,1,1388
4,2,1295,7,1,1466
4,2,1296,7,1,1584
4,4,1297,7,1,2143
4,1,1298,7,1,1355
4,2,1299,7,1,1781
4,5,1300,7,1,1552
4,4,1301,7,1,1675
4,4,1302,7,1,1733
4,2,1303,7,1,2005
4,1,1304,7,1,1208
4,5,1305,7,1,2014
4,3,1306,7,1,1771
4,5,1307,7,1,1497
4,3,1308,7,1,1808
4,5,1309,7,0,NA
4,5,1310,7,1,1570
4,4,1311,7,1,2079
4,3,1312,7,1,1516
4,2,1313,7,1,1399
4,1,1314,7,1,1315
4,2,1315,7,1,1642
4,1,1316,7,1,1398
4,5,1317,7,1,1943
4,4,1318,7,1,1745
4,4,1319,7,1,2164
4,2,1320,7,1,1979
4,5,1321,7,1,1789
4,3,1322,7,1,1909
4,3,1323,7,1,1879
4,1,1324,7,1,1396
4,3,1325,7,1,1410
4,1,1326,7,1,1698
4,3,1327,7,1,1970
4,2,1328,7,1,2131
4,1,1329,7,1,1641
4,4,1330,7,1,2004
4,3,1331,7,1,2120
4,5,1332,7,1,1687
4,4,1333,7,1,1374
4,3,1334,7,1,1516
4,4,1335,7,1,1771
4,1,1336,7,1,1641
4,3,1337,7,1,1968
4,2,1338,7,1,1630
4,2,1339,7,1,1536
4,2,1340,7,1,1162
4,5,1341,7,1,1803
4,2,1342,7,1,1407
4,1,1343,7,1,1341
4,1,1344,7,1,1225
4,4,1345,7,1,142
4,4,1346,7,1,2204
4,2,1347,7,1,1475
4,5,1348,7,1,1789
4,3,1349,7,1,1583
4,5,1350,7,1,1326
4,4,1351,7,1,1827
4,1,1352,7,1,1465
4,4,1353,7,1,1745
4,1,1354,7,1,1225
4,1,1355,7,1,1202
4,3,1356,7,1,1516
4,2,1357,7,1,1686
4,2,1358,7,1,1566
4,4,1359,7,1,1867
4,1,1360,7,1,1304
4,5,1361,7,1,1497
4,4,1362,7,1,1664
4,5,1363,7,1,1879
4,1,1364,7,1,1275
4,1,1365,7,1,1225
4,1,1366,7,1,1641
4,3,1367,7,1,1753
4,5,1368,7,1,1530
4,3,1369,7,1,2169
4,2,1370,7,1,1723
4,2,1371,7,1,1475
4,4,1372,7,1,2144
4,3,1373,7,0,NA
4,2,1374,7,1,1990
4,3,1375,7,1,1383
4,1,1376,7,1,1470
4,4,1377,7,1,1675
4,4,1378,7,1,1523
4,5,1379,7,1,1364
4,2,1380,7,1,1501
4,1,1381,7,1,1465
4,2,1382,7,1,1573
4,5,1383,7,1,1426
4,4,1384,7,1,1932
4,4,1385,7,1,1932
